K_text,B_text,T_text,Anna_exit,trial_num,trial_code,cond,K_hit,B_hit,T_hit,book_move,start_shelf,mid_shelf,end_shelf,rectangle,rectangle_path,Todd_mid,Todd_final,frame_1,frame_2,frame_3,frame_4,frame_5,frame_6,frame_7,frame_8,frame_9,frame_10,trials.thisRepN,trials.thisTrialN,trials.thisN,trials.thisIndex,frames.thisRepN,frames.thisTrialN,frames.thisN,frames.thisIndex,sessionInst.started,startSession.started,startSession.keys,startSession.rt,crossText.started,movingImage.started,staticImage.started,promptText3.started,rectImage.started,respText.started,keyResp.started,keyResp.keys,keyResp.rt,crossText.stopped,respText.stopped,keyResp.stopped,subject,session,date,expName,psychopyVersion,frameRate,
,,,,,,,,,,,,,,,,,,,,,,,,,,,,,,,,,,,,17.75581278221216,17.75581278221216,left,37.3643245989806,,,,,,,,,,,,,S1,B-M,2023-01-25_09h13.40.729,knowing_that_K_ONLY,2022.2.5,59.71384237321834,
Does Anna know that the book is here?,Does Anna think that the book is here?,Is the book here?,early,9,per_9,per_K,1,1,1,switch,X-O-B,X-B-O,X-B-X,M,stimuli/blue-M.png,mB-R,m0,stimuli/m0_w0_X-O-B.png,stimuli/m0_wW-R_X-O-B.png,stimuli/m0_none_X-O-B.png,stimuli/mW-R_none_X-O-B.png,stimuli/mB-R_none_X-O-B.png,stimuli/mB-R_none_X-B-O.png,stimuli/mB-R_none_X-B-X.png,stimuli/mW-L_none_X-B-X.png,stimuli/m0_none_X-B-X.png,stimuli/m0_wW-L_X-B-X.png,0,0,0,8,,,,,,,,,55.18726561364019,61.824106837506406,62.58441278053215,62.58441278053215,62.58441278053215,63.448484239925165,63.448484239925165,right,1.2706749500357546,,,,S1,B-M,2023-01-25_09h13.40.729,knowing_that_K_ONLY,2022.2.5,59.71384237321834,
Does Anna know that the book is here?,Does Anna think that the book is here?,Is the book here?,late,11,mem_2,mem_K,1,1,1,no,O-B-O,O-B-X,O-X-X,M,stimuli/blue-M.png,mB-L,m0,stimuli/m0_w0_O-B-O.png,stimuli/mW-R_w0_O-B-O.png,stimuli/mB-L_w0_O-B-O.png,stimuli/mB-L_w0_O-B-X.png,stimuli/mB-L_w0_O-X-X.png,stimuli/mW-L_w0_O-X-X.png,stimuli/m0_wW-R_O-X-X.png,stimuli/m0_none_O-X-X.png,stimuli/m0_none_O-X-X.png,stimuli/m0_wW-L_O-X-X.png,0,1,1,10,,,,,,,,,64.7483804282383,71.4204919700278,72.16285317955771,72.16285317955771,72.16285317955771,73.04868563980563,73.04868563980563,left,0.6469728370429948,65.81170717655914,,,S1,B-M,2023-01-25_09h13.40.729,knowing_that_K_ONLY,2022.2.5,59.71384237321834,
Does Anna know that the book is here?,Does Anna think that the book is here?,Is the book here?,early,1,per_1,per_K,1,1,1,no,B-X-X,B-O-X,B-X-X,L,stimuli/blue-L.png,mB-M,m0,stimuli/m0_w0_B-X-X.png,stimuli/m0_wW-R_B-X-X.png,stimuli/m0_none_B-X-X.png,stimuli/mW-R_none_B-X-X.png,stimuli/mB-M_none_B-X-X.png,stimuli/mB-M_none_B-O-X.png,stimuli/mB-M_none_B-X-X.png,stimuli/mW-L_none_B-X-X.png,stimuli/m0_none_B-X-X.png,stimuli/m0_wW-L_B-X-X.png,0,2,2,0,,,,,,,,,73.7155360194156,80.38812202814734,81.12398409849266,81.12398409849266,81.12398409849266,82.01541841315338,82.01541841315338,left,0.7124691731878556,74.76999353902647,,,S1,B-M,2023-01-25_09h13.40.729,knowing_that_K_ONLY,2022.2.5,59.71384237321834,
Does Anna know that the book is here?,Does Anna think that the book is here?,Is the book here?,late,16,mem_7,mem_K,1,1,1,switch,B-X-O,O-X-B,O-X-X,R,stimuli/blue-R.png,mB-M,m0,stimuli/m0_w0_B-X-O.png,stimuli/mW-R_w0_B-X-O.png,stimuli/mB-M_w0_B-X-O.png,stimuli/mB-M_w0_O-X-B.png,stimuli/mB-M_w0_O-X-X.png,stimuli/mW-L_w0_O-X-X.png,stimuli/m0_wW-R_O-X-X.png,stimuli/m0_none_O-X-X.png,stimuli/m0_none_O-X-X.png,stimuli/m0_wW-L_O-X-X.png,0,3,3,15,,,,,,,,,82.74873940629186,89.40041871153517,90.16392209375044,90.16392209375044,90.16392209375044,91.0486750532873,91.0486750532873,left,0.015034118026960641,83.80561577732442,,,S1,B-M,2023-01-25_09h13.40.729,knowing_that_K_ONLY,2022.2.5,59.71384237321834,
Does Anna know that the book is here?,Does Anna think that the book is here?,Is the book here?,late,13,mem_4,mem_K,1,1,1,no,B-X-O,B-X-O,X-X-O,L,stimuli/blue-L.png,mB-M,m0,stimuli/m0_w0_B-X-O.png,stimuli/mW-R_w0_B-X-O.png,stimuli/mB-M_w0_B-X-O.png,stimuli/mB-M_w0_B-X-O.png,stimuli/mB-M_w0_X-X-O.png,stimuli/mW-L_w0_X-X-O.png,stimuli/m0_wW-R_X-X-O.png,stimuli/m0_none_X-X-O.png,stimuli/m0_none_X-X-O.png,stimuli/m0_wW-L_X-X-O.png,0,4,4,12,,,,,,,,,91.08210781402886,97.75544097198872,98.49262154084863,98.49262154084863,98.49262154084863,99.38189653347945,99.38189653347945,right,2.0494331361260265,92.14231604058295,,,S1,B-M,2023-01-25_09h13.40.729,knowing_that_K_ONLY,2022.2.5,59.71384237321834,
Does Anna know that the book is here?,Does Anna think that the book is here?,Is the book here?,early,22,no_4,no_K,0,0,0,no,O-X-X,O-O-X,O-X-X,M,stimuli/blue-M.png,mB-M,m0,stimuli/m0_w0_O-X-X.png,stimuli/m0_wW-R_O-X-X.png,stimuli/m0_none_O-X-X.png,stimuli/mW-R_none_O-X-X.png,stimuli/mB-M_none_O-X-X.png,stimuli/mB-M_none_O-O-X.png,stimuli/mB-M_none_O-X-X.png,stimuli/mW-L_none_O-X-X.png,stimuli/m0_none_O-X-X.png,stimuli/m0_wW-L_O-X-X.png,0,5,5,21,,,,,,,,,101.44850252568722,108.12363602768164,108.8601053772145,108.8601053772145,108.8601053772145,109.74845292960526,109.74845292960526,right,0.5706837400794029,102.51062594359973,,,S1,B-M,2023-01-25_09h13.40.729,knowing_that_K_ONLY,2022.2.5,59.71384237321834,
Does Anna know that the book is here?,Does Anna think that the book is here?,Is the book here?,early,20,no_2,no_K,0,0,0,no,X-O-X,O-O-X,X-O-X,L,stimuli/blue-L.png,mB-L,m0,stimuli/m0_w0_X-O-X.png,stimuli/m0_wW-R_X-O-X.png,stimuli/m0_none_X-O-X.png,stimuli/mW-R_none_X-O-X.png,stimuli/mB-L_none_X-O-X.png,stimuli/mB-L_none_O-O-X.png,stimuli/mB-L_none_X-O-X.png,stimuli/mW-L_none_X-O-X.png,stimuli/m0_none_X-O-X.png,stimuli/m0_wW-L_X-O-X.png,0,6,6,19,,,,,,,,,110.34847179282224,117.02387669374002,117.76034540170804,117.76034540170804,117.76034540170804,118.64875069854315,118.64875069854315,right,1.4940850685816258,111.41069915069966,,,S1,B-M,2023-01-25_09h13.40.729,knowing_that_K_ONLY,2022.2.5,59.71384237321834,
Does Anna know that the book is here?,Does Anna think that the book is here?,Is the book here?,early,25,no_7,no_K,0,0,0,hide,B-X-X,B-O-O,O-X-X,M,stimuli/blue-M.png,mB-L,m0,stimuli/m0_w0_B-X-X.png,stimuli/m0_wW-R_B-X-X.png,stimuli/m0_none_B-X-X.png,stimuli/mW-R_none_B-X-X.png,stimuli/mB-L_none_B-X-X.png,stimuli/mB-L_none_B-O-O.png,stimuli/mB-L_none_O-X-X.png,stimuli/mW-L_none_O-X-X.png,stimuli/m0_none_O-X-X.png,stimuli/m0_wW-L_O-X-X.png,0,7,7,24,,,,,,,,,120.16520466242218,126.84129800571827,127.57960106275277,127.57960106275277,127.57960106275277,128.46531643002527,128.46531643002527,right,1.5498411969747394,121.21828305179952,,,S1,B-M,2023-01-25_09h13.40.729,knowing_that_K_ONLY,2022.2.5,59.71384237321834,
Does Anna know that the book is here?,Does Anna think that the book is here?,Is the book here?,early,24,no_6,no_K,0,0,0,no,X-X-X,X-X-O,X-X-X,R,stimuli/blue-R.png,mB-R,m0,stimuli/m0_w0_X-X-X.png,stimuli/m0_wW-R_X-X-X.png,stimuli/m0_none_X-X-X.png,stimuli/mW-R_none_X-X-X.png,stimuli/mB-R_none_X-X-X.png,stimuli/mB-R_none_X-X-O.png,stimuli/mB-R_none_X-X-X.png,stimuli/mW-L_none_X-X-X.png,stimuli/m0_none_X-X-X.png,stimuli/m0_wW-L_X-X-X.png,0,8,8,23,,,,,,,,,130.0318852091441,136.70380041975295,137.4448335066554,137.4448335066554,137.4448335066554,138.3319591220352,138.3319591220352,right,0.25221693253843114,131.0862625281443,,,S1,B-M,2023-01-25_09h13.40.729,knowing_that_K_ONLY,2022.2.5,59.71384237321834,
Does Anna know that the book is here?,Does Anna think that the book is here?,Is the book here?,early,26,no_8,no_K,0,0,0,hide,X-B-O,O-B-O,X-O-X,R,stimuli/blue-R.png,mB-L,m0,stimuli/m0_w0_X-B-O.png,stimuli/m0_wW-R_X-B-O.png,stimuli/m0_none_X-B-O.png,stimuli/mW-R_none_X-B-O.png,stimuli/mB-L_none_X-B-O.png,stimuli/mB-L_none_O-B-O.png,stimuli/mB-L_none_X-O-X.png,stimuli/mW-L_none_X-O-X.png,stimuli/m0_none_X-O-X.png,stimuli/m0_wW-L_X-O-X.png,0,9,9,25,,,,,,,,,138.61569006880745,145.2887162187253,146.02779561799252,146.02779561799252,146.02779561799252,146.9153511088225,146.9153511088225,right,1.1962651144713163,139.656840697804,,,S1,B-M,2023-01-25_09h13.40.729,knowing_that_K_ONLY,2022.2.5,59.71384237321834,
Does Anna know that the book is here?,Does Anna think that the book is here?,Is the book here?,early,23,no_5,no_K,0,0,0,no,X-O-X,X-O-O,X-O-X,R,stimuli/blue-R.png,mB-R,m0,stimuli/m0_w0_X-O-X.png,stimuli/m0_wW-R_X-O-X.png,stimuli/m0_none_X-O-X.png,stimuli/mW-R_none_X-O-X.png,stimuli/mB-R_none_X-O-X.png,stimuli/mB-R_none_X-O-O.png,stimuli/mB-R_none_X-O-X.png,stimuli/mW-L_none_X-O-X.png,stimuli/m0_none_X-O-X.png,stimuli/m0_wW-L_X-O-X.png,0,10,10,22,,,,,,,,,148.13201378681697,154.80908974836348,155.54582696809666,155.54582696809666,155.54582696809666,156.43196066189557,156.43196066189557,right,0.8234193839598447,149.19343015586492,,,S1,B-M,2023-01-25_09h13.40.729,knowing_that_K_ONLY,2022.2.5,59.71384237321834,
Does Anna know that the book is here?,Does Anna think that the book is here?,Is the book here?,late,10,mem_1,mem_K,1,1,1,no,O-X-B,X-X-B,X-X-X,R,stimuli/blue-R.png,mB-M,m0,stimuli/m0_w0_O-X-B.png,stimuli/mW-R_w0_O-X-B.png,stimuli/mB-M_w0_O-X-B.png,stimuli/mB-M_w0_X-X-B.png,stimuli/mB-M_w0_X-X-X.png,stimuli/mW-L_w0_X-X-X.png,stimuli/m0_wW-R_X-X-X.png,stimuli/m0_none_X-X-X.png,stimuli/m0_none_X-X-X.png,stimuli/m0_wW-L_X-X-X.png,0,11,11,9,,,,,,,,,157.2820185025921,163.9549179354799,164.6889979474945,164.6889979474945,164.6889979474945,165.5821623504744,165.5821623504744,left,0.47341062605846673,158.34582356759347,,,S1,B-M,2023-01-25_09h13.40.729,knowing_that_K_ONLY,2022.2.5,59.71384237321834,
Does Anna know that the book is here?,Does Anna think that the book is here?,Is the book here?,late,5,per_5,per_K,1,1,1,no,X-B-O,O-B-O,X-B-O,M,stimuli/blue-M.png,mB-L,m0,stimuli/m0_w0_X-B-O.png,stimuli/mW-R_w0_X-B-O.png,stimuli/mB-L_w0_X-B-O.png,stimuli/mB-L_w0_O-B-O.png,stimuli/mB-L_w0_X-B-O.png,stimuli/mW-L_w0_X-B-O.png,stimuli/m0_wW-R_X-B-O.png,stimuli/m0_none_X-B-O.png,stimuli/m0_none_X-B-O.png,stimuli/m0_wW-L_X-B-O.png,0,12,12,4,,,,,,,,,166.08196986897383,172.75543070631102,173.47375193366315,173.47375193366315,173.47375193366315,174.38214162667282,174.38214162667282,left,0.4741827978868969,167.13849592354381,,,S1,B-M,2023-01-25_09h13.40.729,knowing_that_K_ONLY,2022.2.5,59.71384237321834,
Does Anna know that the book is here?,Does Anna think that the book is here?,Is the book here?,early,28,no_10,no_K,0,0,0,hide,O-B-O,O-B-O,X-O-X,L,stimuli/blue-L.png,mB-M,m0,stimuli/m0_w0_O-B-O.png,stimuli/m0_wW-R_O-B-O.png,stimuli/m0_none_O-B-O.png,stimuli/mW-R_none_O-B-O.png,stimuli/mB-M_none_O-B-O.png,stimuli/mB-M_none_O-B-O.png,stimuli/mB-M_none_X-O-X.png,stimuli/mW-L_none_X-O-X.png,stimuli/m0_none_X-O-X.png,stimuli/m0_wW-L_X-O-X.png,0,13,13,27,,,,,,,,,174.8820434610825,181.5513046719716,182.29299283778528,182.29299283778528,182.29299283778528,183.1822036698577,183.1822036698577,right,1.2573189766262658,175.9360672556213,,,S1,B-M,2023-01-25_09h13.40.729,knowing_that_K_ONLY,2022.2.5,59.71384237321834,
Does Anna know that the book is here?,Does Anna think that the book is here?,Is the book here?,early,8,per_8,per_K,1,1,1,switch,O-X-B,B-X-O,B-X-X,L,stimuli/blue-L.png,mB-L,m0,stimuli/m0_w0_O-X-B.png,stimuli/m0_wW-R_O-X-B.png,stimuli/m0_none_O-X-B.png,stimuli/mW-R_none_O-X-B.png,stimuli/mB-L_none_O-X-B.png,stimuli/mB-L_none_B-X-O.png,stimuli/mB-L_none_B-X-X.png,stimuli/mW-L_none_B-X-X.png,stimuli/m0_none_B-X-X.png,stimuli/m0_wW-L_B-X-X.png,0,14,14,7,,,,,,,,,184.46560418995796,191.13794253912056,191.8794545843266,191.8794545843266,191.8794545843266,192.76556582195917,192.76556582195917,right,2.6741342283203267,185.52491031965474,,,S1,B-M,2023-01-25_09h13.40.729,knowing_that_K_ONLY,2022.2.5,59.71384237321834,
Does Anna know that the book is here?,Does Anna think that the book is here?,Is the book here?,early,19,no_1,no_K,0,0,0,no,X-X-X,O-X-X,X-X-X,L,stimuli/blue-L.png,mB-L,m0,stimuli/m0_w0_X-X-X.png,stimuli/m0_wW-R_X-X-X.png,stimuli/m0_none_X-X-X.png,stimuli/mW-R_none_X-X-X.png,stimuli/mB-L_none_X-X-X.png,stimuli/mB-L_none_O-X-X.png,stimuli/mB-L_none_X-X-X.png,stimuli/mW-L_none_X-X-X.png,stimuli/m0_none_X-X-X.png,stimuli/m0_wW-L_X-X-X.png,0,15,15,18,,,,,,,,,195.46541235002223,202.133741950267,202.87831573520089,202.87831573520089,202.87831573520089,203.76566366676707,203.76566366676707,right,0.6108389186556451,196.5254624208901,,,S1,B-M,2023-01-25_09h13.40.729,knowing_that_K_ONLY,2022.2.5,59.71384237321834,
Does Anna know that the book is here?,Does Anna think that the book is here?,Is the book here?,early,27,no_9,no_K,0,0,0,hide,X-X-B,O-O-B,X-X-O,L,stimuli/blue-L.png,mB-M,m0,stimuli/m0_w0_X-X-B.png,stimuli/m0_wW-R_X-X-B.png,stimuli/m0_none_X-X-B.png,stimuli/mW-R_none_X-X-B.png,stimuli/mB-M_none_X-X-B.png,stimuli/mB-M_none_O-O-B.png,stimuli/mB-M_none_X-X-O.png,stimuli/mW-L_none_X-X-O.png,stimuli/m0_none_X-X-O.png,stimuli/m0_wW-L_X-X-O.png,0,16,16,26,,,,,,,,,204.3987207034952,211.07348367851228,211.8145584698068,211.8145584698068,211.8145584698068,212.69890465174103,212.69890465174103,right,0.4683230180526152,205.4628478542436,,,S1,B-M,2023-01-25_09h13.40.729,knowing_that_K_ONLY,2022.2.5,59.71384237321834,
Does Anna know that the book is here?,Does Anna think that the book is here?,Is the book here?,late,6,per_6,per_K,1,1,1,no,X-B-X,O-B-X,X-B-X,M,stimuli/blue-M.png,mB-L,m0,stimuli/m0_w0_X-B-X.png,stimuli/mW-R_w0_X-B-X.png,stimuli/mB-L_w0_X-B-X.png,stimuli/mB-L_w0_O-B-X.png,stimuli/mB-L_w0_X-B-X.png,stimuli/mW-L_w0_X-B-X.png,stimuli/m0_wW-R_X-B-X.png,stimuli/m0_none_X-B-X.png,stimuli/m0_none_X-B-X.png,stimuli/m0_wW-L_X-B-X.png,0,17,17,5,,,,,,,,,213.19875579932705,219.87274339451687,220.61080681206658,220.61080681206658,220.61080681206658,221.4988143137307,221.4988143137307,left,0.6927811985951848,214.25330442690756,,,S1,B-M,2023-01-25_09h13.40.729,knowing_that_K_ONLY,2022.2.5,59.71384237321834,
Does Anna know that the book is here?,Does Anna think that the book is here?,Is the book here?,late,17,mem_8,mem_K,1,1,1,switch,O-X-B,B-X-O,X-X-O,L,stimuli/blue-L.png,mB-M,m0,stimuli/m0_w0_O-X-B.png,stimuli/mW-R_w0_O-X-B.png,stimuli/mB-M_w0_O-X-B.png,stimuli/mB-M_w0_B-X-O.png,stimuli/mB-M_w0_X-X-O.png,stimuli/mW-L_w0_X-X-O.png,stimuli/m0_wW-R_X-X-O.png,stimuli/m0_none_X-X-O.png,stimuli/m0_none_X-X-O.png,stimuli/m0_wW-L_X-X-O.png,0,18,18,16,,,,,,,,,222.21562135289423,228.88992782583227,229.62761654600035,229.62761654600035,229.62761654600035,230.5157122683595,230.5157122683595,left,0.7159405777929351,223.26968011492863,,,S1,B-M,2023-01-25_09h13.40.729,knowing_that_K_ONLY,2022.2.5,59.71384237321834,
Does Anna know that the book is here?,Does Anna think that the book is here?,Is the book here?,late,4,per_4,per_K,1,1,1,no,O-X-B,O-O-B,O-X-B,R,stimuli/blue-R.png,mB-M,m0,stimuli/m0_w0_O-X-B.png,stimuli/mW-R_w0_O-X-B.png,stimuli/mB-M_w0_O-X-B.png,stimuli/mB-M_w0_O-O-B.png,stimuli/mB-M_w0_O-X-B.png,stimuli/mW-L_w0_O-X-B.png,stimuli/m0_wW-R_O-X-B.png,stimuli/m0_none_O-X-B.png,stimuli/m0_none_O-X-B.png,stimuli/m0_wW-L_O-X-B.png,0,19,19,3,,,,,,,,,231.24872785742627,237.92233883042354,238.65844246500637,238.65844246500637,238.65844246500637,239.54888806620147,239.54888806620147,left,0.34747251914814115,232.30890239967266,,,S1,B-M,2023-01-25_09h13.40.729,knowing_that_K_ONLY,2022.2.5,59.71384237321834,
Does Anna know that the book is here?,Does Anna think that the book is here?,Is the book here?,early,3,per_3,per_K,1,1,1,no,O-B-X,O-B-O,O-B-X,M,stimuli/blue-M.png,mB-R,m0,stimuli/m0_w0_O-B-X.png,stimuli/m0_wW-R_O-B-X.png,stimuli/m0_none_O-B-X.png,stimuli/mW-R_none_O-B-X.png,stimuli/mB-R_none_O-B-X.png,stimuli/mB-R_none_O-B-O.png,stimuli/mB-R_none_O-B-X.png,stimuli/mW-L_none_O-B-X.png,stimuli/m0_none_O-B-X.png,stimuli/m0_wW-L_O-B-X.png,0,20,20,2,,,,,,,,,239.91550958529115,246.5675988761941,247.30650311725913,247.30650311725913,247.30650311725913,248.2154776333482,248.2154776333482,left,0.2807994792237878,240.9752715754439,,,S1,B-M,2023-01-25_09h13.40.729,knowing_that_K_ONLY,2022.2.5,59.71384237321834,
Does Anna know that the book is here?,Does Anna think that the book is here?,Is the book here?,late,14,mem_5,mem_K,1,1,1,no,O-B-X,O-B-X,O-X-X,M,stimuli/blue-M.png,mB-L,m0,stimuli/m0_w0_O-B-X.png,stimuli/mW-R_w0_O-B-X.png,stimuli/mB-L_w0_O-B-X.png,stimuli/mB-L_w0_O-B-X.png,stimuli/mB-L_w0_O-X-X.png,stimuli/mW-L_w0_O-X-X.png,stimuli/m0_wW-R_O-X-X.png,stimuli/m0_none_O-X-X.png,stimuli/m0_none_O-X-X.png,stimuli/m0_wW-L_O-X-X.png,0,21,21,13,,,,,,,,,248.51538889936637,255.1894833217957,255.9289409473422,255.9289409473422,255.9289409473422,256.8157220207504,256.8157220207504,left,0.568708558625076,249.5786072164192,,,S1,B-M,2023-01-25_09h13.40.729,knowing_that_K_ONLY,2022.2.5,59.71384237321834,
Does Anna know that the book is here?,Does Anna think that the book is here?,Is the book here?,late,18,mem_9,mem_K,1,1,1,switch,X-O-B,X-B-O,X-X-O,M,stimuli/blue-M.png,mB-L,m0,stimuli/m0_w0_X-O-B.png,stimuli/mW-R_w0_X-O-B.png,stimuli/mB-L_w0_X-O-B.png,stimuli/mB-L_w0_X-B-O.png,stimuli/mB-L_w0_X-X-O.png,stimuli/mW-L_w0_X-X-O.png,stimuli/m0_wW-R_X-X-O.png,stimuli/m0_none_X-X-O.png,stimuli/m0_none_X-X-O.png,stimuli/m0_wW-L_X-X-O.png,0,22,22,17,,,,,,,,,257.41574345034314,264.0657423916855,264.8047425527475,264.8047425527475,264.8047425527475,265.7157317089732,265.7157317089732,left,0.6045235992060043,258.47140750847757,,,S1,B-M,2023-01-25_09h13.40.729,knowing_that_K_ONLY,2022.2.5,59.71384237321834,
Does Anna know that the book is here?,Does Anna think that the book is here?,Is the book here?,early,21,no_3,no_K,0,0,0,no,X-X-O,X-O-O,X-X-O,M,stimuli/blue-M.png,mB-M,m0,stimuli/m0_w0_X-X-O.png,stimuli/m0_wW-R_X-X-O.png,stimuli/m0_none_X-X-O.png,stimuli/mW-R_none_X-X-O.png,stimuli/mB-M_none_X-X-O.png,stimuli/mB-M_none_X-O-O.png,stimuli/mB-M_none_X-X-O.png,stimuli/mW-L_none_X-X-O.png,stimuli/m0_none_X-X-O.png,stimuli/m0_wW-L_X-X-O.png,0,23,23,20,,,,,,,,,266.3488163347356,273.0214180628536,273.7622599514434,273.7622599514434,273.7622599514434,274.64883699442726,274.64883699442726,right,0.006990314403083175,267.4040453846101,,,S1,B-M,2023-01-25_09h13.40.729,knowing_that_K_ONLY,2022.2.5,59.71384237321834,
Does Anna know that the book is here?,Does Anna think that the book is here?,Is the book here?,late,12,mem_3,mem_K,1,1,1,no,X-O-B,X-O-B,X-O-X,R,stimuli/blue-R.png,mB-M,m0,stimuli/m0_w0_X-O-B.png,stimuli/mW-R_w0_X-O-B.png,stimuli/mB-M_w0_X-O-B.png,stimuli/mB-M_w0_X-O-B.png,stimuli/mB-M_w0_X-O-X.png,stimuli/mW-L_w0_X-O-X.png,stimuli/m0_wW-R_X-O-X.png,stimuli/m0_none_X-O-X.png,stimuli/m0_none_X-O-X.png,stimuli/m0_wW-L_X-O-X.png,0,24,24,11,,,,,,,,,274.6820439102012,281.3554069027887,282.0907062853803,282.0907062853803,282.0907062853803,282.9823321191943,282.9823321191943,left,2.130045047728345,275.73898219608236,,,S1,B-M,2023-01-25_09h13.40.729,knowing_that_K_ONLY,2022.2.5,59.71384237321834,
Does Anna know that the book is here?,Does Anna think that the book is here?,Is the book here?,early,7,per_7,per_K,1,1,1,switch,B-X-O,O-X-B,X-X-B,R,stimuli/blue-R.png,mB-R,m0,stimuli/m0_w0_B-X-O.png,stimuli/m0_wW-R_B-X-O.png,stimuli/m0_none_B-X-O.png,stimuli/mW-R_none_B-X-O.png,stimuli/mB-R_none_B-X-O.png,stimuli/mB-R_none_O-X-B.png,stimuli/mB-R_none_X-X-B.png,stimuli/mW-L_none_X-X-B.png,stimuli/m0_none_X-X-B.png,stimuli/m0_wW-L_X-X-B.png,0,25,25,6,,,,,,,,,285.1324266597512,291.78456856223056,292.5484543411294,292.5484543411294,292.5484543411294,293.4322955798125,293.4322955798125,None,,286.19711746060057,296.4322984670289,296.4322984670289,S1,B-M,2023-01-25_09h13.40.729,knowing_that_K_ONLY,2022.2.5,59.71384237321834,
Does Anna know that the book is here?,Does Anna think that the book is here?,Is the book here?,late,15,mem_6,mem_K,1,1,1,no,X-B-O,X-B-X,X-X-X,M,stimuli/blue-M.png,mB-R,m0,stimuli/m0_w0_X-B-O.png,stimuli/mW-R_w0_X-B-O.png,stimuli/mB-R_w0_X-B-O.png,stimuli/mB-R_w0_X-B-X.png,stimuli/mB-R_w0_X-X-X.png,stimuli/mW-L_w0_X-X-X.png,stimuli/m0_wW-R_X-X-X.png,stimuli/m0_none_X-X-X.png,stimuli/m0_none_X-X-X.png,stimuli/m0_wW-L_X-X-X.png,0,26,26,14,,,,,,,,,296.4487187466002,303.0843098029145,303.8477884833119,303.8477884833119,303.8477884833119,304.73245225974824,304.73245225974824,left,1.468435619783122,,,,S1,B-M,2023-01-25_09h13.40.729,knowing_that_K_ONLY,2022.2.5,59.71384237321834,
Does Anna know that the book is here?,Does Anna think that the book is here?,Is the book here?,early,2,per_2,per_K,1,1,1,no,X-X-B,O-X-B,X-X-B,R,stimuli/blue-R.png,mB-L,m0,stimuli/m0_w0_X-X-B.png,stimuli/m0_wW-R_X-X-B.png,stimuli/m0_none_X-X-B.png,stimuli/mW-R_none_X-X-B.png,stimuli/mB-L_none_X-X-B.png,stimuli/mB-L_none_O-X-B.png,stimuli/mB-L_none_X-X-B.png,stimuli/mW-L_none_X-X-B.png,stimuli/m0_none_X-X-B.png,stimuli/m0_wW-L_X-X-B.png,0,27,27,1,,,,,,,,,306.23220684583066,312.8851244489779,313.6473378840601,313.6473378840601,313.6473378840601,314.53227466344833,314.53227466344833,left,0.4198683561407961,307.28981143864803,,,S1,B-M,2023-01-25_09h13.40.729,knowing_that_K_ONLY,2022.2.5,59.71384237321834,
,,,,,,,,,,,,,,,,,,,,,,,,,,,,,,,,,,,,16.427915020671207,16.427915020671207,left,8.013700010080356,,,,,,,,,,,,,S1,B-M,2023-01-25_09h19.15.833,knowing_that_K_ONLY,2022.2.5,60.018637997178566,
Does Anna know that the book is here?,Does Anna think that the book is here?,Is the book here?,late,15,mem_6,mem_K,1,1,1,no,X-B-O,X-B-X,X-X-X,M,stimuli/blue-M.png,mB-R,m0,stimuli/m0_w0_X-B-O.png,stimuli/mW-R_w0_X-B-O.png,stimuli/mB-R_w0_X-B-O.png,stimuli/mB-R_w0_X-B-X.png,stimuli/mB-R_w0_X-X-X.png,stimuli/mW-L_w0_X-X-X.png,stimuli/m0_wW-R_X-X-X.png,stimuli/m0_none_X-X-X.png,stimuli/m0_none_X-X-X.png,stimuli/m0_wW-L_X-X-X.png,0,0,0,14,,,,,,,,,24.501063460542355,31.119012941839173,31.880347377853468,31.880347377853468,31.880347377853468,32.76883704576176,32.76883704576176,left,0.3134704437106848,,,,S1,B-M,2023-01-25_09h19.15.833,knowing_that_K_ONLY,2022.2.5,60.018637997178566,
Does Anna know that the book is here?,Does Anna think that the book is here?,Is the book here?,early,25,no_7,no_K,0,0,0,hide,B-X-X,B-O-O,O-X-X,M,stimuli/blue-M.png,mB-L,m0,stimuli/m0_w0_B-X-X.png,stimuli/m0_wW-R_B-X-X.png,stimuli/m0_none_B-X-X.png,stimuli/mW-R_none_B-X-X.png,stimuli/mB-L_none_B-X-X.png,stimuli/mB-L_none_B-O-O.png,stimuli/mB-L_none_O-X-X.png,stimuli/mW-L_none_O-X-X.png,stimuli/m0_none_O-X-X.png,stimuli/m0_wW-L_O-X-X.png,0,1,1,24,,,,,,,,,33.101951057091355,39.77611958491616,40.49474012106657,40.49474012106657,40.49474012106657,41.402199486561585,41.402199486561585,right,0.30338922288501635,34.14196957380045,,,S1,B-M,2023-01-25_09h19.15.833,knowing_that_K_ONLY,2022.2.5,60.018637997178566,
Does Anna know that the book is here?,Does Anna think that the book is here?,Is the book here?,early,7,per_7,per_K,1,1,1,switch,B-X-O,O-X-B,X-X-B,R,stimuli/blue-R.png,mB-R,m0,stimuli/m0_w0_B-X-O.png,stimuli/m0_wW-R_B-X-O.png,stimuli/m0_none_B-X-O.png,stimuli/mW-R_none_B-X-O.png,stimuli/mB-R_none_B-X-O.png,stimuli/mB-R_none_O-X-B.png,stimuli/mB-R_none_X-X-B.png,stimuli/mW-L_none_X-X-B.png,stimuli/m0_none_X-X-B.png,stimuli/m0_wW-L_X-X-B.png,0,2,2,6,,,,,,,,,41.73564681177959,48.412699996319134,49.146955808158964,49.146955808158964,49.146955808158964,50.035531771951355,50.035531771951355,left,1.590451704338193,42.804581509844866,,,S1,B-M,2023-01-25_09h19.15.833,knowing_that_K_ONLY,2022.2.5,60.018637997178566,
Does Anna know that the book is here?,Does Anna think that the book is here?,Is the book here?,early,23,no_5,no_K,0,0,0,no,X-O-X,X-O-O,X-O-X,R,stimuli/blue-R.png,mB-R,m0,stimuli/m0_w0_X-O-X.png,stimuli/m0_wW-R_X-O-X.png,stimuli/m0_none_X-O-X.png,stimuli/mW-R_none_X-O-X.png,stimuli/mB-R_none_X-O-X.png,stimuli/mB-R_none_X-O-O.png,stimuli/mB-R_none_X-O-X.png,stimuli/mW-L_none_X-O-X.png,stimuli/m0_none_X-O-X.png,stimuli/m0_wW-L_X-O-X.png,0,3,3,22,,,,,,,,,51.65224872977706,58.32437727408251,59.06399594247341,59.06399594247341,59.06399594247341,59.95220554975094,59.95220554975094,right,0.8416029043728486,52.71705213235691,,,S1,B-M,2023-01-25_09h19.15.833,knowing_that_K_ONLY,2022.2.5,60.018637997178566,
Does Anna know that the book is here?,Does Anna think that the book is here?,Is the book here?,early,2,per_2,per_K,1,1,1,no,X-X-B,O-X-B,X-X-B,R,stimuli/blue-R.png,mB-L,m0,stimuli/m0_w0_X-X-B.png,stimuli/m0_wW-R_X-X-B.png,stimuli/m0_none_X-X-B.png,stimuli/mW-R_none_X-X-B.png,stimuli/mB-L_none_X-X-B.png,stimuli/mB-L_none_O-X-B.png,stimuli/mB-L_none_X-X-B.png,stimuli/mW-L_none_X-X-B.png,stimuli/m0_none_X-X-B.png,stimuli/m0_wW-L_X-X-B.png,0,4,4,1,,,,,,,,,60.81867468758719,67.49346461001551,68.23467253433773,68.23467253433773,68.23467253433773,69.11916628543986,69.11916628543986,left,1.0826273296261206,61.87962781771785,,,S1,B-M,2023-01-25_09h19.15.833,knowing_that_K_ONLY,2022.2.5,60.018637997178566,
Does Anna know that the book is here?,Does Anna think that the book is here?,Is the book here?,late,16,mem_7,mem_K,1,1,1,switch,B-X-O,O-X-B,O-X-X,R,stimuli/blue-R.png,mB-M,m0,stimuli/m0_w0_B-X-O.png,stimuli/mW-R_w0_B-X-O.png,stimuli/mB-M_w0_B-X-O.png,stimuli/mB-M_w0_O-X-B.png,stimuli/mB-M_w0_O-X-X.png,stimuli/mW-L_w0_O-X-X.png,stimuli/m0_wW-R_O-X-X.png,stimuli/m0_none_O-X-X.png,stimuli/m0_none_O-X-X.png,stimuli/m0_wW-L_O-X-X.png,0,5,5,15,,,,,,,,,70.2189201657311,76.89322182664182,77.63044762867503,77.63044762867503,77.63044762867503,78.51906433439581,78.51906433439581,left,0.3316195283550769,71.28102561866399,,,S1,B-M,2023-01-25_09h19.15.833,knowing_that_K_ONLY,2022.2.5,60.018637997178566,
Does Anna know that the book is here?,Does Anna think that the book is here?,Is the book here?,early,21,no_3,no_K,0,0,0,no,X-X-O,X-O-O,X-X-O,M,stimuli/blue-M.png,mB-M,m0,stimuli/m0_w0_X-X-O.png,stimuli/m0_wW-R_X-X-O.png,stimuli/m0_none_X-X-O.png,stimuli/mW-R_none_X-X-O.png,stimuli/mB-M_none_X-X-O.png,stimuli/mB-M_none_X-O-O.png,stimuli/mB-M_none_X-X-O.png,stimuli/mW-L_none_X-X-O.png,stimuli/m0_none_X-X-O.png,stimuli/m0_wW-L_X-X-O.png,0,6,6,20,,,,,,,,,78.86897620989475,85.54405036341632,86.28440366970608,86.28440366970608,86.28440366970608,87.16909663920524,87.16909663920524,right,0.5295168600277975,79.9326802220894,,,S1,B-M,2023-01-25_09h19.15.833,knowing_that_K_ONLY,2022.2.5,60.018637997178566,
Does Anna know that the book is here?,Does Anna think that the book is here?,Is the book here?,late,6,per_6,per_K,1,1,1,no,X-B-X,O-B-X,X-B-X,M,stimuli/blue-M.png,mB-L,m0,stimuli/m0_w0_X-B-X.png,stimuli/mW-R_w0_X-B-X.png,stimuli/mB-L_w0_X-B-X.png,stimuli/mB-L_w0_O-B-X.png,stimuli/mB-L_w0_X-B-X.png,stimuli/mW-L_w0_X-B-X.png,stimuli/m0_wW-R_X-B-X.png,stimuli/m0_none_X-B-X.png,stimuli/m0_none_X-B-X.png,stimuli/m0_wW-L_X-B-X.png,0,7,7,5,,,,,,,,,87.71894582989626,94.37037587154191,95.13335987442406,95.13335987442406,95.13335987442406,96.01891612360487,96.01891612360487,left,0.0865468955016695,88.78689726808807,,,S1,B-M,2023-01-25_09h19.15.833,knowing_that_K_ONLY,2022.2.5,60.018637997178566,
Does Anna know that the book is here?,Does Anna think that the book is here?,Is the book here?,late,13,mem_4,mem_K,1,1,1,no,B-X-O,B-X-O,X-X-O,L,stimuli/blue-L.png,mB-M,m0,stimuli/m0_w0_B-X-O.png,stimuli/mW-R_w0_B-X-O.png,stimuli/mB-M_w0_B-X-O.png,stimuli/mB-M_w0_B-X-O.png,stimuli/mB-M_w0_X-X-O.png,stimuli/mW-L_w0_X-X-O.png,stimuli/m0_wW-R_X-X-O.png,stimuli/m0_none_X-X-O.png,stimuli/m0_none_X-X-O.png,stimuli/m0_wW-L_X-X-O.png,0,8,8,12,,,,,,,,,96.1356658032746,102.8108236862463,103.54882166004973,103.54882166004973,103.54882166004973,104.43564122979296,104.43564122979296,left,0.0469957881141454,97.20217523392057,,,S1,B-M,2023-01-25_09h19.15.833,knowing_that_K_ONLY,2022.2.5,60.018637997178566,
Does Anna know that the book is here?,Does Anna think that the book is here?,Is the book here?,early,9,per_9,per_K,1,1,1,switch,X-O-B,X-B-O,X-B-X,M,stimuli/blue-M.png,mB-R,m0,stimuli/m0_w0_X-O-B.png,stimuli/m0_wW-R_X-O-B.png,stimuli/m0_none_X-O-B.png,stimuli/mW-R_none_X-O-B.png,stimuli/mB-R_none_X-O-B.png,stimuli/mB-R_none_X-B-O.png,stimuli/mB-R_none_X-B-X.png,stimuli/mW-L_none_X-B-X.png,stimuli/m0_none_X-B-X.png,stimuli/m0_wW-L_X-B-X.png,0,9,9,8,,,,,,,,,104.50241018971428,111.17908258165698,111.91931719100103,111.91931719100103,111.91931719100103,112.8024638920906,112.8024638920906,left,0.9677392672747374,105.57001933158608,,,S1,B-M,2023-01-25_09h19.15.833,knowing_that_K_ONLY,2022.2.5,60.018637997178566,
Does Anna know that the book is here?,Does Anna think that the book is here?,Is the book here?,early,3,per_3,per_K,1,1,1,no,O-B-X,O-B-O,O-B-X,M,stimuli/blue-M.png,mB-R,m0,stimuli/m0_w0_O-B-X.png,stimuli/m0_wW-R_O-B-X.png,stimuli/m0_none_O-B-X.png,stimuli/mW-R_none_O-B-X.png,stimuli/mB-R_none_O-B-X.png,stimuli/mB-R_none_O-B-O.png,stimuli/mB-R_none_O-B-X.png,stimuli/mW-L_none_O-B-X.png,stimuli/m0_none_O-B-X.png,stimuli/m0_wW-L_O-B-X.png,0,10,10,2,,,,,,,,,113.80229803716065,120.47487506346079,121.21679452789249,121.21679452789249,121.21679452789249,122.10259843664244,122.10259843664244,left,0.9798437898862176,114.86543422873365,,,S1,B-M,2023-01-25_09h19.15.833,knowing_that_K_ONLY,2022.2.5,60.018637997178566,
Does Anna know that the book is here?,Does Anna think that the book is here?,Is the book here?,late,14,mem_5,mem_K,1,1,1,no,O-B-X,O-B-X,O-X-X,M,stimuli/blue-M.png,mB-L,m0,stimuli/m0_w0_O-B-X.png,stimuli/mW-R_w0_O-B-X.png,stimuli/mB-L_w0_O-B-X.png,stimuli/mB-L_w0_O-B-X.png,stimuli/mB-L_w0_O-X-X.png,stimuli/mW-L_w0_O-X-X.png,stimuli/m0_wW-R_O-X-X.png,stimuli/m0_none_O-X-X.png,stimuli/m0_none_O-X-X.png,stimuli/m0_wW-L_O-X-X.png,0,11,11,13,,,,,,,,,123.10230458149454,129.7774124192656,130.51412718283245,130.51412718283245,130.51412718283245,131.40231882513035,131.40231882513035,right,0.8878764296532609,124.16455279156798,,,S1,B-M,2023-01-25_09h19.15.833,knowing_that_K_ONLY,2022.2.5,60.018637997178566,
Does Anna know that the book is here?,Does Anna think that the book is here?,Is the book here?,late,11,mem_2,mem_K,1,1,1,no,O-B-O,O-B-X,O-X-X,M,stimuli/blue-M.png,mB-L,m0,stimuli/m0_w0_O-B-O.png,stimuli/mW-R_w0_O-B-O.png,stimuli/mB-L_w0_O-B-O.png,stimuli/mB-L_w0_O-B-X.png,stimuli/mB-L_w0_O-X-X.png,stimuli/mW-L_w0_O-X-X.png,stimuli/m0_wW-R_O-X-X.png,stimuli/m0_none_O-X-X.png,stimuli/m0_none_O-X-X.png,stimuli/m0_wW-L_O-X-X.png,0,12,12,10,,,,,,,,,132.319151400181,138.97127822501352,139.71136686915997,139.71136686915997,139.71136686915997,140.61902705713874,140.61902705713874,left,0.2957149838330224,133.38995124440407,,,S1,B-M,2023-01-25_09h19.15.833,knowing_that_K_ONLY,2022.2.5,60.018637997178566,
Does Anna know that the book is here?,Does Anna think that the book is here?,Is the book here?,early,27,no_9,no_K,0,0,0,hide,X-X-B,O-O-B,X-X-O,L,stimuli/blue-L.png,mB-M,m0,stimuli/m0_w0_X-X-B.png,stimuli/m0_wW-R_X-X-B.png,stimuli/m0_none_X-X-B.png,stimuli/mW-R_none_X-X-B.png,stimuli/mB-M_none_X-X-B.png,stimuli/mB-M_none_O-O-B.png,stimuli/mB-M_none_X-X-O.png,stimuli/mW-L_none_X-X-O.png,stimuli/m0_none_X-X-O.png,stimuli/m0_wW-L_X-X-O.png,0,13,13,26,,,,,,,,,140.93567619728856,147.6087706781109,148.32626904686913,148.32626904686913,148.32626904686913,149.2356763256248,149.2356763256248,right,0.27013386599719524,142.00182055460755,,,S1,B-M,2023-01-25_09h19.15.833,knowing_that_K_ONLY,2022.2.5,60.018637997178566,
Does Anna know that the book is here?,Does Anna think that the book is here?,Is the book here?,late,12,mem_3,mem_K,1,1,1,no,X-O-B,X-O-B,X-O-X,R,stimuli/blue-R.png,mB-M,m0,stimuli/m0_w0_X-O-B.png,stimuli/mW-R_w0_X-O-B.png,stimuli/mB-M_w0_X-O-B.png,stimuli/mB-M_w0_X-O-B.png,stimuli/mB-M_w0_X-O-X.png,stimuli/mW-L_w0_X-O-X.png,stimuli/m0_wW-R_X-O-X.png,stimuli/m0_none_X-O-X.png,stimuli/m0_none_X-O-X.png,stimuli/m0_wW-L_X-O-X.png,0,14,14,11,,,,,,,,,149.5359504193184,156.18681520683458,156.94778970238985,156.94778970238985,156.94778970238985,157.83573272271315,157.83573272271315,left,0.10190980980405584,150.59601011424093,,,S1,B-M,2023-01-25_09h19.15.833,knowing_that_K_ONLY,2022.2.5,60.018637997178566,
Does Anna know that the book is here?,Does Anna think that the book is here?,Is the book here?,early,22,no_4,no_K,0,0,0,no,O-X-X,O-O-X,O-X-X,M,stimuli/blue-M.png,mB-M,m0,stimuli/m0_w0_O-X-X.png,stimuli/m0_wW-R_O-X-X.png,stimuli/m0_none_O-X-X.png,stimuli/mW-R_none_O-X-X.png,stimuli/mB-M_none_O-X-X.png,stimuli/mB-M_none_O-O-X.png,stimuli/mB-M_none_O-X-X.png,stimuli/mW-L_none_O-X-X.png,stimuli/m0_none_O-X-X.png,stimuli/m0_wW-L_O-X-X.png,0,15,15,21,,,,,,,,,157.96906564966775,164.6200674198917,165.35934186709346,165.35934186709346,165.35934186709346,166.2691196728265,166.2691196728265,right,0.3563675219193101,159.03316809859825,,,S1,B-M,2023-01-25_09h19.15.833,knowing_that_K_ONLY,2022.2.5,60.018637997178566,
Does Anna know that the book is here?,Does Anna think that the book is here?,Is the book here?,early,8,per_8,per_K,1,1,1,switch,O-X-B,B-X-O,B-X-X,L,stimuli/blue-L.png,mB-L,m0,stimuli/m0_w0_O-X-B.png,stimuli/m0_wW-R_O-X-B.png,stimuli/m0_none_O-X-B.png,stimuli/mW-R_none_O-X-B.png,stimuli/mB-L_none_O-X-B.png,stimuli/mB-L_none_B-X-O.png,stimuli/mB-L_none_B-X-X.png,stimuli/mW-L_none_B-X-X.png,stimuli/m0_none_B-X-X.png,stimuli/m0_wW-L_B-X-X.png,0,16,16,7,,,,,,,,,166.65260642464273,173.30553172703367,174.0439053606824,174.0439053606824,174.0439053606824,174.95244968053885,174.95244968053885,left,1.2101325571420603,167.7161458650953,,,S1,B-M,2023-01-25_09h19.15.833,knowing_that_K_ONLY,2022.2.5,60.018637997178566,
Does Anna know that the book is here?,Does Anna think that the book is here?,Is the book here?,late,17,mem_8,mem_K,1,1,1,switch,O-X-B,B-X-O,X-X-O,L,stimuli/blue-L.png,mB-M,m0,stimuli/m0_w0_O-X-B.png,stimuli/mW-R_w0_O-X-B.png,stimuli/mB-M_w0_O-X-B.png,stimuli/mB-M_w0_B-X-O.png,stimuli/mB-M_w0_X-X-O.png,stimuli/mW-L_w0_X-X-O.png,stimuli/m0_wW-R_X-X-O.png,stimuli/m0_none_X-X-O.png,stimuli/m0_none_X-X-O.png,stimuli/m0_wW-L_X-X-O.png,0,17,17,16,,,,,,,,,176.18577227764763,182.8362350995303,183.57473448774545,183.57473448774545,183.57473448774545,184.48575315781636,184.48575315781636,left,0.39631514123175293,177.25508167315274,,,S1,B-M,2023-01-25_09h19.15.833,knowing_that_K_ONLY,2022.2.5,60.018637997178566,
Does Anna know that the book is here?,Does Anna think that the book is here?,Is the book here?,early,19,no_1,no_K,0,0,0,no,X-X-X,O-X-X,X-X-X,L,stimuli/blue-L.png,mB-L,m0,stimuli/m0_w0_X-X-X.png,stimuli/m0_wW-R_X-X-X.png,stimuli/m0_none_X-X-X.png,stimuli/mW-R_none_X-X-X.png,stimuli/mB-L_none_X-X-X.png,stimuli/mB-L_none_O-X-X.png,stimuli/mB-L_none_X-X-X.png,stimuli/mW-L_none_X-X-X.png,stimuli/m0_none_X-X-X.png,stimuli/m0_wW-L_X-X-X.png,0,18,18,18,,,,,,,,,184.90242276515346,191.55523129546782,192.2936613903148,192.2936613903148,192.2936613903148,193.20257206668612,193.20257206668612,right,0.9275237777619623,185.9624269612832,,,S1,B-M,2023-01-25_09h19.15.833,knowing_that_K_ONLY,2022.2.5,60.018637997178566,
Does Anna know that the book is here?,Does Anna think that the book is here?,Is the book here?,early,26,no_8,no_K,0,0,0,hide,X-B-O,O-B-O,X-O-X,R,stimuli/blue-R.png,mB-L,m0,stimuli/m0_w0_X-B-O.png,stimuli/m0_wW-R_X-B-O.png,stimuli/m0_none_X-B-O.png,stimuli/mW-R_none_X-B-O.png,stimuli/mB-L_none_X-B-O.png,stimuli/mB-L_none_O-B-O.png,stimuli/mB-L_none_X-O-X.png,stimuli/mW-L_none_X-O-X.png,stimuli/m0_none_X-O-X.png,stimuli/m0_wW-L_X-O-X.png,0,19,19,25,,,,,,,,,194.15239341172855,200.82481452799402,201.54240945831407,201.54240945831407,201.54240945831407,202.45244518929394,202.45244518929394,right,0.5495679830783047,195.21983990666922,,,S1,B-M,2023-01-25_09h19.15.833,knowing_that_K_ONLY,2022.2.5,60.018637997178566,
Does Anna know that the book is here?,Does Anna think that the book is here?,Is the book here?,late,5,per_5,per_K,1,1,1,no,X-B-O,O-B-O,X-B-O,M,stimuli/blue-M.png,mB-L,m0,stimuli/m0_w0_X-B-O.png,stimuli/mW-R_w0_X-B-O.png,stimuli/mB-L_w0_X-B-O.png,stimuli/mB-L_w0_O-B-O.png,stimuli/mB-L_w0_X-B-O.png,stimuli/mW-L_w0_X-B-O.png,stimuli/m0_wW-R_X-B-O.png,stimuli/m0_none_X-B-O.png,stimuli/m0_none_X-B-O.png,stimuli/m0_wW-L_X-B-O.png,0,20,20,4,,,,,,,,,203.01912913651904,209.67003691155696,210.40813786297804,210.40813786297804,210.40813786297804,211.31907921965467,211.31907921965467,left,0.23445612890645862,204.08324377593817,,,S1,B-M,2023-01-25_09h19.15.833,knowing_that_K_ONLY,2022.2.5,60.018637997178566,
Does Anna know that the book is here?,Does Anna think that the book is here?,Is the book here?,late,10,mem_1,mem_K,1,1,1,no,O-X-B,X-X-B,X-X-X,R,stimuli/blue-R.png,mB-M,m0,stimuli/m0_w0_O-X-B.png,stimuli/mW-R_w0_O-X-B.png,stimuli/mB-M_w0_O-X-B.png,stimuli/mB-M_w0_X-X-B.png,stimuli/mB-M_w0_X-X-X.png,stimuli/mW-L_w0_X-X-X.png,stimuli/m0_wW-R_X-X-X.png,stimuli/m0_none_X-X-X.png,stimuli/m0_none_X-X-X.png,stimuli/m0_wW-L_X-X-X.png,0,21,21,9,,,,,,,,,211.58582944469526,218.2604663443053,218.99999069672776,218.99999069672776,218.99999069672776,219.88597200933145,219.88597200933145,left,0.2756587278563529,212.6479605617933,,,S1,B-M,2023-01-25_09h19.15.833,knowing_that_K_ONLY,2022.2.5,60.018637997178566,
Does Anna know that the book is here?,Does Anna think that the book is here?,Is the book here?,early,28,no_10,no_K,0,0,0,hide,O-B-O,O-B-O,X-O-X,L,stimuli/blue-L.png,mB-M,m0,stimuli/m0_w0_O-B-O.png,stimuli/m0_wW-R_O-B-O.png,stimuli/m0_none_O-B-O.png,stimuli/mW-R_none_O-B-O.png,stimuli/mB-M_none_O-B-O.png,stimuli/mB-M_none_O-B-O.png,stimuli/mB-M_none_X-O-X.png,stimuli/mW-L_none_X-O-X.png,stimuli/m0_none_X-O-X.png,stimuli/m0_wW-L_X-O-X.png,0,22,22,27,,,,,,,,,220.1855746632791,226.8374015376903,227.59972051682416,227.59972051682416,227.59972051682416,228.48592574958457,228.48592574958457,right,0.5402534804889001,221.2534410887747,,,S1,B-M,2023-01-25_09h19.15.833,knowing_that_K_ONLY,2022.2.5,60.018637997178566,
Does Anna know that the book is here?,Does Anna think that the book is here?,Is the book here?,early,24,no_6,no_K,0,0,0,no,X-X-X,X-X-O,X-X-X,R,stimuli/blue-R.png,mB-R,m0,stimuli/m0_w0_X-X-X.png,stimuli/m0_wW-R_X-X-X.png,stimuli/m0_none_X-X-X.png,stimuli/mW-R_none_X-X-X.png,stimuli/mB-R_none_X-X-X.png,stimuli/mB-R_none_X-X-O.png,stimuli/mB-R_none_X-X-X.png,stimuli/mW-L_none_X-X-X.png,stimuli/m0_none_X-X-X.png,stimuli/m0_wW-L_X-X-X.png,0,23,23,23,,,,,,,,,229.05276689009042,235.70360601338325,236.46539470588323,236.46539470588323,236.46539470588323,237.35255208070157,237.35255208070157,right,0.44947758089983836,230.11678400554229,,,S1,B-M,2023-01-25_09h19.15.833,knowing_that_K_ONLY,2022.2.5,60.018637997178566,
Does Anna know that the book is here?,Does Anna think that the book is here?,Is the book here?,early,1,per_1,per_K,1,1,1,no,B-X-X,B-O-X,B-X-X,L,stimuli/blue-L.png,mB-M,m0,stimuli/m0_w0_B-X-X.png,stimuli/m0_wW-R_B-X-X.png,stimuli/m0_none_B-X-X.png,stimuli/mW-R_none_B-X-X.png,stimuli/mB-M_none_B-X-X.png,stimuli/mB-M_none_B-O-X.png,stimuli/mB-M_none_B-X-X.png,stimuli/mW-L_none_B-X-X.png,stimuli/m0_none_B-X-X.png,stimuli/m0_wW-L_B-X-X.png,0,24,24,0,,,,,,,,,237.8194218367571,244.47046049922938,245.23399467853596,245.23399467853596,245.23399467853596,246.11929075681837,246.11929075681837,left,0.7317110212752596,238.88173998182174,,,S1,B-M,2023-01-25_09h19.15.833,knowing_that_K_ONLY,2022.2.5,60.018637997178566,
Does Anna know that the book is here?,Does Anna think that the book is here?,Is the book here?,late,4,per_4,per_K,1,1,1,no,O-X-B,O-O-B,O-X-B,R,stimuli/blue-R.png,mB-M,m0,stimuli/m0_w0_O-X-B.png,stimuli/mW-R_w0_O-X-B.png,stimuli/mB-M_w0_O-X-B.png,stimuli/mB-M_w0_O-O-B.png,stimuli/mB-M_w0_O-X-B.png,stimuli/mW-L_w0_O-X-B.png,stimuli/m0_wW-R_O-X-B.png,stimuli/m0_none_O-X-B.png,stimuli/m0_none_O-X-B.png,stimuli/m0_wW-L_O-X-B.png,0,25,25,3,,,,,,,,,246.86922194471117,253.54143004806247,254.28539462888148,254.28539462888148,254.28539462888148,255.1692932911683,255.1692932911683,left,0.2975798091501929,247.9305067846435,,,S1,B-M,2023-01-25_09h19.15.833,knowing_that_K_ONLY,2022.2.5,60.018637997178566,
Does Anna know that the book is here?,Does Anna think that the book is here?,Is the book here?,early,20,no_2,no_K,0,0,0,no,X-O-X,O-O-X,X-O-X,L,stimuli/blue-L.png,mB-L,m0,stimuli/m0_w0_X-O-X.png,stimuli/m0_wW-R_X-O-X.png,stimuli/m0_none_X-O-X.png,stimuli/mW-R_none_X-O-X.png,stimuli/mB-L_none_X-O-X.png,stimuli/mB-L_none_O-O-X.png,stimuli/mB-L_none_X-O-X.png,stimuli/mW-L_none_X-O-X.png,stimuli/m0_none_X-O-X.png,stimuli/m0_wW-L_X-O-X.png,0,26,26,19,,,,,,,,,255.4859437145642,262.15770109026926,262.8966611510259,262.8966611510259,262.8966611510259,263.786045537272,263.786045537272,right,0.7517788261175156,256.5500946046668,,,S1,B-M,2023-01-25_09h19.15.833,knowing_that_K_ONLY,2022.2.5,60.018637997178566,
Does Anna know that the book is here?,Does Anna think that the book is here?,Is the book here?,late,18,mem_9,mem_K,1,1,1,switch,X-O-B,X-B-O,X-X-O,M,stimuli/blue-M.png,mB-L,m0,stimuli/m0_w0_X-O-B.png,stimuli/mW-R_w0_X-O-B.png,stimuli/mB-L_w0_X-O-B.png,stimuli/mB-L_w0_X-B-O.png,stimuli/mB-L_w0_X-X-O.png,stimuli/mW-L_w0_X-X-O.png,stimuli/m0_wW-R_X-X-O.png,stimuli/m0_none_X-X-O.png,stimuli/m0_none_X-X-O.png,stimuli/m0_wW-L_X-X-O.png,0,27,27,17,,,,,,,,,264.56920770107536,271.2444133836543,271.98262757837074,271.98262757837074,271.98262757837074,272.86940865177894,272.86940865177894,left,0.31673813867382705,265.63733141025295,,,S1,B-M,2023-01-25_09h19.15.833,knowing_that_K_ONLY,2022.2.5,60.018637997178566,
,,,,,,,,,,,,,,,,,,,,,,,,,,,,,,,,,,,,20.099966572364792,20.099966572364792,left,11.684471881540958,,,,,,,,,,,,,S1,B-M,2023-01-25_09h24.14.468,knowing_that_K_ONLY,2022.2.5,60.088286271740564,
Does Anna know that the book is here?,Does Anna think that the book is here?,Is the book here?,late,18,mem_9,mem_K,1,1,1,switch,X-O-B,X-B-O,X-X-O,M,stimuli/blue-M.png,mB-L,m0,stimuli/m0_w0_X-O-B.png,stimuli/mW-R_w0_X-O-B.png,stimuli/mB-L_w0_X-O-B.png,stimuli/mB-L_w0_X-B-O.png,stimuli/mB-L_w0_X-X-O.png,stimuli/mW-L_w0_X-X-O.png,stimuli/m0_wW-R_X-X-O.png,stimuli/m0_none_X-X-O.png,stimuli/m0_none_X-X-O.png,stimuli/m0_wW-L_X-X-O.png,0,0,0,17,,,,,,,,,31.845656108635012,38.47756820102222,39.241918822866865,39.241918822866865,39.241918822866865,40.108103729609866,40.108103729609866,left,0.06108190939994529,,,,S1,B-M,2023-01-25_09h24.14.468,knowing_that_K_ONLY,2022.2.5,60.088286271740564,
Does Anna know that the book is here?,Does Anna think that the book is here?,Is the book here?,late,14,mem_5,mem_K,1,1,1,no,O-B-X,O-B-X,O-X-X,M,stimuli/blue-M.png,mB-L,m0,stimuli/m0_w0_O-B-X.png,stimuli/mW-R_w0_O-B-X.png,stimuli/mB-L_w0_O-B-X.png,stimuli/mB-L_w0_O-B-X.png,stimuli/mB-L_w0_O-X-X.png,stimuli/mW-L_w0_O-X-X.png,stimuli/m0_wW-R_O-X-X.png,stimuli/m0_none_O-X-X.png,stimuli/m0_none_O-X-X.png,stimuli/m0_wW-L_O-X-X.png,0,1,1,13,,,,,,,,,40.19112647260772,46.86218514031498,47.60178969340632,47.60178969340632,47.60178969340632,48.49114552827086,48.49114552827086,None,,41.24886644410435,51.49090011429507,51.49090011429507,S1,B-M,2023-01-25_09h24.14.468,knowing_that_K_ONLY,2022.2.5,60.088286271740564,
Does Anna know that the book is here?,Does Anna think that the book is here?,Is the book here?,early,19,no_1,no_K,0,0,0,no,X-X-X,O-X-X,X-X-X,L,stimuli/blue-L.png,mB-L,m0,stimuli/m0_w0_X-X-X.png,stimuli/m0_wW-R_X-X-X.png,stimuli/m0_none_X-X-X.png,stimuli/mW-R_none_X-X-X.png,stimuli/mB-L_none_X-X-X.png,stimuli/mB-L_none_O-X-X.png,stimuli/mB-L_none_X-X-X.png,stimuli/mW-L_none_X-X-X.png,stimuli/m0_none_X-X-X.png,stimuli/m0_wW-L_X-X-X.png,0,2,2,18,,,,,,,,,51.50772043468896,58.16337705019396,58.90304095175816,58.90304095175816,58.90304095175816,59.7913413461647,59.7913413461647,right,0.648868891352322,,,,S1,B-M,2023-01-25_09h24.14.468,knowing_that_K_ONLY,2022.2.5,60.088286271740564,
Does Anna know that the book is here?,Does Anna think that the book is here?,Is the book here?,late,16,mem_7,mem_K,1,1,1,switch,B-X-O,O-X-B,O-X-X,R,stimuli/blue-R.png,mB-M,m0,stimuli/m0_w0_B-X-O.png,stimuli/mW-R_w0_B-X-O.png,stimuli/mB-M_w0_B-X-O.png,stimuli/mB-M_w0_O-X-B.png,stimuli/mB-M_w0_O-X-X.png,stimuli/mW-L_w0_O-X-X.png,stimuli/m0_wW-R_O-X-X.png,stimuli/m0_none_O-X-X.png,stimuli/m0_none_O-X-X.png,stimuli/m0_wW-L_O-X-X.png,0,3,3,15,,,,,,,,,60.458031966059934,67.12793959415285,67.86875838501146,67.86875838501146,67.86875838501146,68.757985578035,68.757985578035,left,0.41853970306692645,61.513119221141096,,,S1,B-M,2023-01-25_09h24.14.468,knowing_that_K_ONLY,2022.2.5,60.088286271740564,
Does Anna know that the book is here?,Does Anna think that the book is here?,Is the book here?,early,3,per_3,per_K,1,1,1,no,O-B-X,O-B-O,O-B-X,M,stimuli/blue-M.png,mB-R,m0,stimuli/m0_w0_O-B-X.png,stimuli/m0_wW-R_O-B-X.png,stimuli/m0_none_O-B-X.png,stimuli/mW-R_none_O-B-X.png,stimuli/mB-R_none_O-B-X.png,stimuli/mB-R_none_O-B-O.png,stimuli/mB-R_none_O-B-X.png,stimuli/mW-L_none_O-B-X.png,stimuli/m0_none_O-B-X.png,stimuli/m0_wW-L_O-B-X.png,0,4,4,2,,,,,,,,,69.20766095787985,75.87793911295012,76.6201258059591,76.6201258059591,76.6201258059591,77.50816025503445,77.50816025503445,left,0.2770163656095974,70.26459603582043,,,S1,B-M,2023-01-25_09h24.14.468,knowing_that_K_ONLY,2022.2.5,60.088286271740564,
Does Anna know that the book is here?,Does Anna think that the book is here?,Is the book here?,early,1,per_1,per_K,1,1,1,no,B-X-X,B-O-X,B-X-X,L,stimuli/blue-L.png,mB-M,m0,stimuli/m0_w0_B-X-X.png,stimuli/m0_wW-R_B-X-X.png,stimuli/m0_none_B-X-X.png,stimuli/mW-R_none_B-X-X.png,stimuli/mB-M_none_B-X-X.png,stimuli/mB-M_none_B-O-X.png,stimuli/mB-M_none_B-X-X.png,stimuli/mW-L_none_B-X-X.png,stimuli/m0_none_B-X-X.png,stimuli/m0_wW-L_B-X-X.png,0,5,5,0,,,,,,,,,77.80762496386888,84.47735518810805,85.21754713071277,85.21754713071277,85.21754713071277,86.10811752412701,86.10811752412701,left,0.8198794387863018,78.86627376906108,,,S1,B-M,2023-01-25_09h24.14.468,knowing_that_K_ONLY,2022.2.5,60.088286271740564,
Does Anna know that the book is here?,Does Anna think that the book is here?,Is the book here?,late,10,mem_1,mem_K,1,1,1,no,O-X-B,X-X-B,X-X-X,R,stimuli/blue-R.png,mB-M,m0,stimuli/m0_w0_O-X-B.png,stimuli/mW-R_w0_O-X-B.png,stimuli/mB-M_w0_O-X-B.png,stimuli/mB-M_w0_X-X-B.png,stimuli/mB-M_w0_X-X-X.png,stimuli/mW-L_w0_X-X-X.png,stimuli/m0_wW-R_X-X-X.png,stimuli/m0_none_X-X-X.png,stimuli/m0_none_X-X-X.png,stimuli/m0_wW-L_X-X-X.png,0,6,6,9,,,,,,,,,86.95784782536794,93.62552619643975,94.36699397087796,94.36699397087796,94.36699397087796,95.25818351318594,95.25818351318594,left,0.5986552689573728,88.01487721927697,,,S1,B-M,2023-01-25_09h24.14.468,knowing_that_K_ONLY,2022.2.5,60.088286271740564,
Does Anna know that the book is here?,Does Anna think that the book is here?,Is the book here?,late,13,mem_4,mem_K,1,1,1,no,B-X-O,B-X-O,X-X-O,L,stimuli/blue-L.png,mB-M,m0,stimuli/m0_w0_B-X-O.png,stimuli/mW-R_w0_B-X-O.png,stimuli/mB-M_w0_B-X-O.png,stimuli/mB-M_w0_B-X-O.png,stimuli/mB-M_w0_X-X-O.png,stimuli/mW-L_w0_X-X-O.png,stimuli/m0_wW-R_X-X-O.png,stimuli/m0_none_X-X-O.png,stimuli/m0_none_X-X-O.png,stimuli/m0_wW-L_X-X-O.png,0,7,7,12,,,,,,,,,95.87455528747523,102.54704698029673,103.2826835263404,103.2826835263404,103.2826835263404,104.17481943627354,104.17481943627354,left,0.09805472654988989,96.92971825198038,,,S1,B-M,2023-01-25_09h24.14.468,knowing_that_K_ONLY,2022.2.5,60.088286271740564,
Does Anna know that the book is here?,Does Anna think that the book is here?,Is the book here?,early,22,no_4,no_K,0,0,0,no,O-X-X,O-O-X,O-X-X,M,stimuli/blue-M.png,mB-M,m0,stimuli/m0_w0_O-X-X.png,stimuli/m0_wW-R_O-X-X.png,stimuli/m0_none_O-X-X.png,stimuli/mW-R_none_O-X-X.png,stimuli/mB-M_none_O-X-X.png,stimuli/mB-M_none_O-O-X.png,stimuli/mB-M_none_O-X-X.png,stimuli/mW-L_none_O-X-X.png,stimuli/m0_none_O-X-X.png,stimuli/m0_wW-L_O-X-X.png,0,8,8,21,,,,,,,,,104.29101220268058,110.9637849185965,111.70004125521518,111.70004125521518,111.70004125521518,112.59131356462603,112.59131356462603,right,0.8648906059097499,105.34378615044989,,,S1,B-M,2023-01-25_09h24.14.468,knowing_that_K_ONLY,2022.2.5,60.088286271740564,
Does Anna know that the book is here?,Does Anna think that the book is here?,Is the book here?,early,7,per_7,per_K,1,1,1,switch,B-X-O,O-X-B,X-X-B,R,stimuli/blue-R.png,mB-R,m0,stimuli/m0_w0_B-X-O.png,stimuli/m0_wW-R_B-X-O.png,stimuli/m0_none_B-X-O.png,stimuli/mW-R_none_B-X-O.png,stimuli/mB-R_none_B-X-O.png,stimuli/mB-R_none_O-X-B.png,stimuli/mB-R_none_X-X-B.png,stimuli/mW-L_none_X-X-B.png,stimuli/m0_none_X-X-B.png,stimuli/m0_wW-L_X-X-B.png,0,9,9,6,,,,,,,,,113.47458826593356,120.14463929279009,120.88395319879055,120.88395319879055,120.88395319879055,121.77473917149473,121.77473917149473,left,0.23407565825618804,114.53151339897886,,,S1,B-M,2023-01-25_09h24.14.468,knowing_that_K_ONLY,2022.2.5,60.088286271740564,
Does Anna know that the book is here?,Does Anna think that the book is here?,Is the book here?,late,17,mem_8,mem_K,1,1,1,switch,O-X-B,B-X-O,X-X-O,L,stimuli/blue-L.png,mB-M,m0,stimuli/m0_w0_O-X-B.png,stimuli/mW-R_w0_O-X-B.png,stimuli/mB-M_w0_O-X-B.png,stimuli/mB-M_w0_B-X-O.png,stimuli/mB-M_w0_X-X-O.png,stimuli/mW-L_w0_X-X-O.png,stimuli/m0_wW-R_X-X-O.png,stimuli/m0_none_X-X-O.png,stimuli/m0_none_X-X-O.png,stimuli/m0_wW-L_X-X-O.png,0,10,10,16,,,,,,,,,122.04145282501122,128.71180444391211,129.4519226019038,129.4519226019038,129.4519226019038,130.34143562999088,130.34143562999088,left,0.5154291371582076,123.10067682928639,,,S1,B-M,2023-01-25_09h24.14.468,knowing_that_K_ONLY,2022.2.5,60.088286271740564,
Does Anna know that the book is here?,Does Anna think that the book is here?,Is the book here?,late,5,per_5,per_K,1,1,1,no,X-B-O,O-B-O,X-B-O,M,stimuli/blue-M.png,mB-L,m0,stimuli/m0_w0_X-B-O.png,stimuli/mW-R_w0_X-B-O.png,stimuli/mB-L_w0_X-B-O.png,stimuli/mB-L_w0_O-B-O.png,stimuli/mB-L_w0_X-B-O.png,stimuli/mW-L_w0_X-B-O.png,stimuli/m0_wW-R_X-B-O.png,stimuli/m0_none_X-B-O.png,stimuli/m0_none_X-B-O.png,stimuli/m0_wW-L_X-B-O.png,0,11,11,4,,,,,,,,,130.8748225159943,137.54414917062968,138.28322183305863,138.28322183305863,138.28322183305863,139.17478286480764,139.17478286480764,left,0.9782410615007393,131.9340920742252,,,S1,B-M,2023-01-25_09h24.14.468,knowing_that_K_ONLY,2022.2.5,60.088286271740564,
Does Anna know that the book is here?,Does Anna think that the book is here?,Is the book here?,early,25,no_7,no_K,0,0,0,hide,B-X-X,B-O-O,O-X-X,M,stimuli/blue-M.png,mB-L,m0,stimuli/m0_w0_B-X-X.png,stimuli/m0_wW-R_B-X-X.png,stimuli/m0_none_B-X-X.png,stimuli/mW-R_none_B-X-X.png,stimuli/mB-L_none_B-X-X.png,stimuli/mB-L_none_B-O-O.png,stimuli/mB-L_none_O-X-X.png,stimuli/mW-L_none_O-X-X.png,stimuli/m0_none_O-X-X.png,stimuli/m0_wW-L_O-X-X.png,0,12,12,24,,,,,,,,,140.17466352623887,146.84542416839395,147.56070130009903,147.56070130009903,147.56070130009903,148.47462804545648,148.47462804545648,right,0.934378688398283,141.2301607670379,,,S1,B-M,2023-01-25_09h24.14.468,knowing_that_K_ONLY,2022.2.5,60.088286271740564,
Does Anna know that the book is here?,Does Anna think that the book is here?,Is the book here?,early,9,per_9,per_K,1,1,1,switch,X-O-B,X-B-O,X-B-X,M,stimuli/blue-M.png,mB-R,m0,stimuli/m0_w0_X-O-B.png,stimuli/m0_wW-R_X-O-B.png,stimuli/m0_none_X-O-B.png,stimuli/mW-R_none_X-O-B.png,stimuli/mB-R_none_X-O-B.png,stimuli/mB-R_none_X-B-O.png,stimuli/mB-R_none_X-B-X.png,stimuli/mW-L_none_X-B-X.png,stimuli/m0_none_X-B-X.png,stimuli/m0_wW-L_X-B-X.png,0,13,13,8,,,,,,,,,149.4412738813553,156.11083440110087,156.8544278133195,156.8544278133195,156.8544278133195,157.74165704793995,157.74165704793995,right,0.3950165336718783,150.49429645109922,,,S1,B-M,2023-01-25_09h24.14.468,knowing_that_K_ONLY,2022.2.5,60.088286271740564,
Does Anna know that the book is here?,Does Anna think that the book is here?,Is the book here?,early,23,no_5,no_K,0,0,0,no,X-O-X,X-O-O,X-O-X,R,stimuli/blue-R.png,mB-R,m0,stimuli/m0_w0_X-O-X.png,stimuli/m0_wW-R_X-O-X.png,stimuli/m0_none_X-O-X.png,stimuli/mW-R_none_X-O-X.png,stimuli/mB-R_none_X-O-X.png,stimuli/mB-R_none_X-O-O.png,stimuli/mB-R_none_X-O-X.png,stimuli/mW-L_none_X-O-X.png,stimuli/m0_none_X-O-X.png,stimuli/m0_wW-L_X-O-X.png,0,14,14,22,,,,,,,,,158.15758399735205,164.82717755972408,165.56582997081568,165.56582997081568,165.56582997081568,166.45796395593788,166.45796395593788,right,0.40682784281671047,159.21574293705635,,,S1,B-M,2023-01-25_09h24.14.468,knowing_that_K_ONLY,2022.2.5,60.088286271740564,
Does Anna know that the book is here?,Does Anna think that the book is here?,Is the book here?,late,12,mem_3,mem_K,1,1,1,no,X-O-B,X-O-B,X-O-X,R,stimuli/blue-R.png,mB-M,m0,stimuli/m0_w0_X-O-B.png,stimuli/mW-R_w0_X-O-B.png,stimuli/mB-M_w0_X-O-B.png,stimuli/mB-M_w0_X-O-B.png,stimuli/mB-M_w0_X-O-X.png,stimuli/mW-L_w0_X-O-X.png,stimuli/m0_wW-R_X-O-X.png,stimuli/m0_none_X-O-X.png,stimuli/m0_none_X-O-X.png,stimuli/m0_wW-L_X-O-X.png,0,15,15,11,,,,,,,,,166.89147505664732,173.56089602725115,174.29864794551395,174.29864794551395,174.29864794551395,175.19131157564698,175.19131157564698,left,0.6967438630526885,167.94866549340077,,,S1,B-M,2023-01-25_09h24.14.468,knowing_that_K_ONLY,2022.2.5,60.088286271740564,
Does Anna know that the book is here?,Does Anna think that the book is here?,Is the book here?,late,6,per_6,per_K,1,1,1,no,X-B-X,O-B-X,X-B-X,M,stimuli/blue-M.png,mB-L,m0,stimuli/m0_w0_X-B-X.png,stimuli/mW-R_w0_X-B-X.png,stimuli/mB-L_w0_X-B-X.png,stimuli/mB-L_w0_O-B-X.png,stimuli/mB-L_w0_X-B-X.png,stimuli/mW-L_w0_X-B-X.png,stimuli/m0_wW-R_X-B-X.png,stimuli/m0_none_X-B-X.png,stimuli/m0_none_X-B-X.png,stimuli/m0_wW-L_X-B-X.png,0,16,16,5,,,,,,,,,175.90799574746052,182.5558100232738,183.31766865076497,183.31766865076497,183.31766865076497,184.20802795601776,184.20802795601776,left,0.16146680840756744,176.96481277002022,,,S1,B-M,2023-01-25_09h24.14.468,knowing_that_K_ONLY,2022.2.5,60.088286271740564,
Does Anna know that the book is here?,Does Anna think that the book is here?,Is the book here?,early,2,per_2,per_K,1,1,1,no,X-X-B,O-X-B,X-X-B,R,stimuli/blue-R.png,mB-L,m0,stimuli/m0_w0_X-X-B.png,stimuli/m0_wW-R_X-X-B.png,stimuli/m0_none_X-X-B.png,stimuli/mW-R_none_X-X-B.png,stimuli/mB-L_none_X-X-B.png,stimuli/mB-L_none_O-X-B.png,stimuli/mB-L_none_X-X-B.png,stimuli/mW-L_none_X-X-B.png,stimuli/m0_none_X-X-B.png,stimuli/m0_wW-L_X-X-B.png,0,17,17,1,,,,,,,,,184.39135539729614,191.06255618057912,191.7990114148124,191.7990114148124,191.7990114148124,192.69137252814835,192.69137252814835,left,0.748686611361336,185.44800848973682,,,S1,B-M,2023-01-25_09h24.14.468,knowing_that_K_ONLY,2022.2.5,60.088286271740564,
Does Anna know that the book is here?,Does Anna think that the book is here?,Is the book here?,early,8,per_8,per_K,1,1,1,switch,O-X-B,B-X-O,B-X-X,L,stimuli/blue-L.png,mB-L,m0,stimuli/m0_w0_O-X-B.png,stimuli/m0_wW-R_O-X-B.png,stimuli/m0_none_O-X-B.png,stimuli/mW-R_none_O-X-B.png,stimuli/mB-L_none_O-X-B.png,stimuli/mB-L_none_B-X-O.png,stimuli/mB-L_none_B-X-X.png,stimuli/mW-L_none_B-X-X.png,stimuli/m0_none_B-X-X.png,stimuli/m0_wW-L_B-X-X.png,0,18,18,7,,,,,,,,,193.4581891593407,200.12795980472583,200.8704252751777,200.8704252751777,200.8704252751777,201.75784121686593,201.75784121686593,left,0.3157587297610007,194.5222377134487,,,S1,B-M,2023-01-25_09h24.14.468,knowing_that_K_ONLY,2022.2.5,60.088286271740564,
Does Anna know that the book is here?,Does Anna think that the book is here?,Is the book here?,early,24,no_6,no_K,0,0,0,no,X-X-X,X-X-O,X-X-X,R,stimuli/blue-R.png,mB-R,m0,stimuli/m0_w0_X-X-X.png,stimuli/m0_wW-R_X-X-X.png,stimuli/m0_none_X-X-X.png,stimuli/mW-R_none_X-X-X.png,stimuli/mB-R_none_X-X-X.png,stimuli/mB-R_none_X-X-O.png,stimuli/mB-R_none_X-X-X.png,stimuli/mW-L_none_X-X-X.png,stimuli/m0_none_X-X-X.png,stimuli/m0_wW-L_X-X-X.png,0,19,19,23,,,,,,,,,202.0913818955887,208.75989274930907,209.50048858235823,209.50048858235823,209.50048858235823,210.39154852041975,210.39154852041975,right,0.8970927679911256,203.1489354808582,,,S1,B-M,2023-01-25_09h24.14.468,knowing_that_K_ONLY,2022.2.5,60.088286271740564,
Does Anna know that the book is here?,Does Anna think that the book is here?,Is the book here?,early,21,no_3,no_K,0,0,0,no,X-X-O,X-O-O,X-X-O,M,stimuli/blue-M.png,mB-M,m0,stimuli/m0_w0_X-X-O.png,stimuli/m0_wW-R_X-X-O.png,stimuli/m0_none_X-X-O.png,stimuli/mW-R_none_X-X-O.png,stimuli/mB-M_none_X-X-O.png,stimuli/mB-M_none_X-O-O.png,stimuli/mB-M_none_X-X-O.png,stimuli/mW-L_none_X-X-O.png,stimuli/m0_none_X-X-O.png,stimuli/m0_wW-L_X-X-O.png,0,20,20,20,,,,,,,,,211.30804521520622,217.97935186332325,218.71657317411155,218.71657317411155,218.71657317411155,219.60804373951396,219.60804373951396,right,0.32049634208669886,212.36626606981736,,,S1,B-M,2023-01-25_09h24.14.468,knowing_that_K_ONLY,2022.2.5,60.088286271740564,
Does Anna know that the book is here?,Does Anna think that the book is here?,Is the book here?,late,15,mem_6,mem_K,1,1,1,no,X-B-O,X-B-X,X-X-X,M,stimuli/blue-M.png,mB-R,m0,stimuli/m0_w0_X-B-O.png,stimuli/mW-R_w0_X-B-O.png,stimuli/mB-R_w0_X-B-O.png,stimuli/mB-R_w0_X-B-X.png,stimuli/mB-R_w0_X-X-X.png,stimuli/mW-L_w0_X-X-X.png,stimuli/m0_wW-R_X-X-X.png,stimuli/m0_none_X-X-X.png,stimuli/m0_none_X-X-X.png,stimuli/m0_wW-L_X-X-X.png,0,21,21,14,,,,,,,,,219.95823920454131,226.62898380652769,227.3692033381667,227.3692033381667,227.3692033381667,228.25809048046358,228.25809048046358,left,0.5819748184876516,221.01781320438022,,,S1,B-M,2023-01-25_09h24.14.468,knowing_that_K_ONLY,2022.2.5,60.088286271740564,
Does Anna know that the book is here?,Does Anna think that the book is here?,Is the book here?,early,27,no_9,no_K,0,0,0,hide,X-X-B,O-O-B,X-X-O,L,stimuli/blue-L.png,mB-M,m0,stimuli/m0_w0_X-X-B.png,stimuli/m0_wW-R_X-X-B.png,stimuli/m0_none_X-X-B.png,stimuli/mW-R_none_X-X-B.png,stimuli/mB-M_none_X-X-B.png,stimuli/mB-M_none_O-O-B.png,stimuli/mB-M_none_X-X-O.png,stimuli/mW-L_none_X-X-O.png,stimuli/m0_none_X-X-O.png,stimuli/m0_wW-L_X-X-O.png,0,22,22,26,,,,,,,,,228.85808752907906,235.53214730485342,236.26729783503106,236.26729783503106,236.26729783503106,237.15833499620203,237.15833499620203,right,0.458474169485271,229.91085506079253,,,S1,B-M,2023-01-25_09h24.14.468,knowing_that_K_ONLY,2022.2.5,60.088286271740564,
Does Anna know that the book is here?,Does Anna think that the book is here?,Is the book here?,late,11,mem_2,mem_K,1,1,1,no,O-B-O,O-B-X,O-X-X,M,stimuli/blue-M.png,mB-L,m0,stimuli/m0_w0_O-B-O.png,stimuli/mW-R_w0_O-B-O.png,stimuli/mB-L_w0_O-B-O.png,stimuli/mB-L_w0_O-B-X.png,stimuli/mB-L_w0_O-X-X.png,stimuli/mW-L_w0_O-X-X.png,stimuli/m0_wW-R_O-X-X.png,stimuli/m0_none_O-X-X.png,stimuli/m0_none_O-X-X.png,stimuli/m0_wW-L_O-X-X.png,0,23,23,10,,,,,,,,,237.6417215934489,244.31247357389657,245.05104482191382,245.05104482191382,245.05104482191382,245.9414538515848,245.9414538515848,left,0.15525157935917377,238.69484906562138,,,S1,B-M,2023-01-25_09h24.14.468,knowing_that_K_ONLY,2022.2.5,60.088286271740564,
Does Anna know that the book is here?,Does Anna think that the book is here?,Is the book here?,early,28,no_10,no_K,0,0,0,hide,O-B-O,O-B-O,X-O-X,L,stimuli/blue-L.png,mB-M,m0,stimuli/m0_w0_O-B-O.png,stimuli/m0_wW-R_O-B-O.png,stimuli/m0_none_O-B-O.png,stimuli/mW-R_none_O-B-O.png,stimuli/mB-M_none_O-B-O.png,stimuli/mB-M_none_O-B-O.png,stimuli/mB-M_none_X-O-X.png,stimuli/mW-L_none_X-O-X.png,stimuli/m0_none_X-O-X.png,stimuli/m0_wW-L_X-O-X.png,0,24,24,27,,,,,,,,,246.12480374902952,252.79450349707622,253.533146925678,253.533146925678,253.533146925678,254.42461364145856,254.42461364145856,right,0.5359550480498001,247.18111550755566,,,S1,B-M,2023-01-25_09h24.14.468,knowing_that_K_ONLY,2022.2.5,60.088286271740564,
Does Anna know that the book is here?,Does Anna think that the book is here?,Is the book here?,early,26,no_8,no_K,0,0,0,hide,X-B-O,O-B-O,X-O-X,R,stimuli/blue-R.png,mB-L,m0,stimuli/m0_w0_X-B-O.png,stimuli/m0_wW-R_X-B-O.png,stimuli/m0_none_X-B-O.png,stimuli/mW-R_none_X-B-O.png,stimuli/mB-L_none_X-B-O.png,stimuli/mB-L_none_O-B-O.png,stimuli/mB-L_none_X-O-X.png,stimuli/mW-L_none_X-O-X.png,stimuli/m0_none_X-O-X.png,stimuli/m0_wW-L_X-O-X.png,0,25,25,25,,,,,,,,,254.99132485687733,261.66187697736314,262.3994008049485,262.3994008049485,262.3994008049485,263.2914805744658,263.2914805744658,right,0.9250305015011691,256.0456883813604,,,S1,B-M,2023-01-25_09h24.14.468,knowing_that_K_ONLY,2022.2.5,60.088286271740564,
Does Anna know that the book is here?,Does Anna think that the book is here?,Is the book here?,late,4,per_4,per_K,1,1,1,no,O-X-B,O-O-B,O-X-B,R,stimuli/blue-R.png,mB-M,m0,stimuli/m0_w0_O-X-B.png,stimuli/mW-R_w0_O-X-B.png,stimuli/mB-M_w0_O-X-B.png,stimuli/mB-M_w0_O-O-B.png,stimuli/mB-M_w0_O-X-B.png,stimuli/mW-L_w0_O-X-B.png,stimuli/m0_wW-R_O-X-B.png,stimuli/m0_none_O-X-B.png,stimuli/m0_none_O-X-B.png,stimuli/m0_wW-L_O-X-B.png,0,26,26,3,,,,,,,,,264.2416243260959,270.9130397262634,271.65085420099786,271.65085420099786,271.65085420099786,272.5416263792431,272.5416263792431,left,0.25074873032281175,265.30004375748103,,,S1,B-M,2023-01-25_09h24.14.468,knowing_that_K_ONLY,2022.2.5,60.088286271740564,
Does Anna know that the book is here?,Does Anna think that the book is here?,Is the book here?,early,20,no_2,no_K,0,0,0,no,X-O-X,O-O-X,X-O-X,L,stimuli/blue-L.png,mB-L,m0,stimuli/m0_w0_X-O-X.png,stimuli/m0_wW-R_X-O-X.png,stimuli/m0_none_X-O-X.png,stimuli/mW-R_none_X-O-X.png,stimuli/mB-L_none_X-O-X.png,stimuli/mB-L_none_O-O-X.png,stimuli/mB-L_none_X-O-X.png,stimuli/mW-L_none_X-O-X.png,stimuli/m0_none_X-O-X.png,stimuli/m0_wW-L_X-O-X.png,0,27,27,19,,,,,,,,,272.8250201624469,279.4952434602892,280.234378037625,280.234378037625,280.234378037625,281.12500713788904,281.12500713788904,right,0.5320149509352632,273.88010709674563,,,S1,B-M,2023-01-25_09h24.14.468,knowing_that_K_ONLY,2022.2.5,60.088286271740564,
