K_text,B_text,T_text,Anna_exit,trial_num,trial_code,cond,K_hit,B_hit,T_hit,book_move,start_shelf,mid_shelf,end_shelf,rectangle,rectangle_path,Todd_mid,Todd_final,frame_1,frame_2,frame_3,frame_4,frame_5,frame_6,frame_7,frame_8,frame_9,frame_10,trials.thisRepN,trials.thisTrialN,trials.thisN,trials.thisIndex,frames.thisRepN,frames.thisTrialN,frames.thisN,frames.thisIndex,sessionInst.started,startSession.started,startSession.keys,startSession.rt,crossText.started,movingImage.started,staticImage.started,promptText3.started,rectImage.started,respText.started,keyResp.started,keyResp.keys,keyResp.rt,crossText.stopped,subject,session,date,expName,psychopyVersion,frameRate,
,,,,,,,,,,,,,,,,,,,,,,,,,,,,,,,,,,,,12.63623619027203,12.63623619027203,left,6.812267078377772,,,,,,,,,,,S1,K-M,2023-01-25_09h43.59.421,knowing_that_K_ONLY,2022.2.5,59.738560835196225,
Does Anna know that the book is here?,Does Anna think that the book is here?,Is the book here?,late,6,per_6,per_K,1,1,1,no,X-B-X,O-B-X,X-B-X,M,stimuli/blue-M.png,mB-L,m0,stimuli/m0_w0_X-B-X.png,stimuli/mW-R_w0_X-B-X.png,stimuli/mB-L_w0_X-B-X.png,stimuli/mB-L_w0_O-B-X.png,stimuli/mB-L_w0_X-B-X.png,stimuli/mW-L_w0_X-B-X.png,stimuli/m0_wW-R_X-B-X.png,stimuli/m0_none_X-B-X.png,stimuli/m0_none_X-B-X.png,stimuli/m0_wW-L_X-B-X.png,0,0,0,5,,,,,,,,,19.48974105459638,26.129378714540508,26.89100796810817,26.89100796810817,26.89100796810817,27.757913076668046,27.757913076668046,left,1.0818493484985083,,S1,K-M,2023-01-25_09h43.59.421,knowing_that_K_ONLY,2022.2.5,59.738560835196225,
Does Anna know that the book is here?,Does Anna think that the book is here?,Is the book here?,early,26,no_8,no_K,0,0,0,hide,X-B-O,O-B-O,X-O-X,R,stimuli/blue-R.png,mB-L,m0,stimuli/m0_w0_X-B-O.png,stimuli/m0_wW-R_X-B-O.png,stimuli/m0_none_X-B-O.png,stimuli/mW-R_none_X-B-O.png,stimuli/mB-L_none_X-B-O.png,stimuli/mB-L_none_O-B-O.png,stimuli/mB-L_none_X-O-X.png,stimuli/mW-L_none_X-O-X.png,stimuli/m0_none_X-O-X.png,stimuli/m0_wW-L_X-O-X.png,0,1,1,25,,,,,,,,,28.858104531595018,35.52745075523853,36.26750314870151,36.26750314870151,36.26750314870151,37.158099206280895,37.158099206280895,right,0.569608163961675,29.918551435286645,S1,K-M,2023-01-25_09h43.59.421,knowing_that_K_ONLY,2022.2.5,59.738560835196225,
Does Anna know that the book is here?,Does Anna think that the book is here?,Is the book here?,early,21,no_3,no_K,0,0,0,no,X-X-O,X-O-O,X-X-O,M,stimuli/blue-M.png,mB-M,m0,stimuli/m0_w0_X-X-O.png,stimuli/m0_wW-R_X-X-O.png,stimuli/m0_none_X-X-O.png,stimuli/mW-R_none_X-X-O.png,stimuli/mB-M_none_X-X-O.png,stimuli/mB-M_none_X-O-O.png,stimuli/mB-M_none_X-X-O.png,stimuli/mW-L_none_X-X-O.png,stimuli/m0_none_X-X-O.png,stimuli/m0_wW-L_X-X-O.png,0,2,2,20,,,,,,,,,37.75795253535034,44.40417274320498,45.16882171144243,45.16882171144243,45.16882171144243,46.05824683961691,46.05824683961691,right,0.2619055659743026,38.81014615128515,S1,K-M,2023-01-25_09h43.59.421,knowing_that_K_ONLY,2022.2.5,59.738560835196225,
Does Anna know that the book is here?,Does Anna think that the book is here?,Is the book here?,late,5,per_5,per_K,1,1,1,no,X-B-O,O-B-O,X-B-O,M,stimuli/blue-M.png,mB-L,m0,stimuli/m0_w0_X-B-O.png,stimuli/mW-R_w0_X-B-O.png,stimuli/mB-L_w0_X-B-O.png,stimuli/mB-L_w0_O-B-O.png,stimuli/mB-L_w0_X-B-O.png,stimuli/mW-L_w0_X-B-O.png,stimuli/m0_wW-R_X-B-O.png,stimuli/m0_none_X-B-O.png,stimuli/m0_none_X-B-O.png,stimuli/m0_wW-L_X-B-O.png,0,3,3,4,,,,,,,,,46.34107151912758,53.01417819043854,53.75301666703308,53.75301666703308,53.75301666703308,54.641418435028754,54.641418435028754,left,0.3989893165999092,47.39287888869876,S1,K-M,2023-01-25_09h43.59.421,knowing_that_K_ONLY,2022.2.5,59.738560835196225,
Does Anna know that the book is here?,Does Anna think that the book is here?,Is the book here?,early,8,per_8,per_K,1,1,1,switch,O-X-B,B-X-O,B-X-X,L,stimuli/blue-L.png,mB-L,m0,stimuli/m0_w0_O-X-B.png,stimuli/m0_wW-R_O-X-B.png,stimuli/m0_none_O-X-B.png,stimuli/mW-R_none_O-X-B.png,stimuli/mB-L_none_O-X-B.png,stimuli/mB-L_none_B-X-O.png,stimuli/mB-L_none_B-X-X.png,stimuli/mW-L_none_B-X-X.png,stimuli/m0_none_B-X-X.png,stimuli/m0_wW-L_B-X-X.png,0,4,4,7,,,,,,,,,55.05821508017834,61.72782115387963,62.47060903086094,62.47060903086094,62.47060903086094,63.35824728879379,63.35824728879379,left,0.12931273051071912,56.11443380592391,S1,K-M,2023-01-25_09h43.59.421,knowing_that_K_ONLY,2022.2.5,59.738560835196225,
Does Anna know that the book is here?,Does Anna think that the book is here?,Is the book here?,early,1,per_1,per_K,1,1,1,no,B-X-X,B-O-X,B-X-X,L,stimuli/blue-L.png,mB-M,m0,stimuli/m0_w0_B-X-X.png,stimuli/m0_wW-R_B-X-X.png,stimuli/m0_none_B-X-X.png,stimuli/mW-R_none_B-X-X.png,stimuli/mB-M_none_B-X-X.png,stimuli/mB-M_none_B-O-X.png,stimuli/mB-M_none_B-X-X.png,stimuli/mW-L_none_B-X-X.png,stimuli/m0_none_B-X-X.png,stimuli/m0_wW-L_B-X-X.png,0,5,5,0,,,,,,,,,63.50798124721041,70.17564935254632,70.91877439303789,70.91877439303789,70.91877439303789,71.808021475852,71.808021475852,left,0.5115153096267022,64.56491857068613,S1,K-M,2023-01-25_09h43.59.421,knowing_that_K_ONLY,2022.2.5,59.738560835196225,
Does Anna know that the book is here?,Does Anna think that the book is here?,Is the book here?,late,4,per_4,per_K,1,1,1,no,O-X-B,O-O-B,O-X-B,R,stimuli/blue-R.png,mB-M,m0,stimuli/m0_w0_O-X-B.png,stimuli/mW-R_w0_O-X-B.png,stimuli/mB-M_w0_O-X-B.png,stimuli/mB-M_w0_O-O-B.png,stimuli/mB-M_w0_O-X-B.png,stimuli/mW-L_w0_O-X-B.png,stimuli/m0_wW-R_O-X-B.png,stimuli/m0_none_O-X-B.png,stimuli/m0_none_O-X-B.png,stimuli/m0_wW-L_O-X-B.png,0,6,6,3,,,,,,,,,72.34141862747492,79.01257449842524,79.75283188471803,79.75283188471803,79.75283188471803,80.64167443546467,80.64167443546467,left,0.5352623991202563,73.40065546386177,S1,K-M,2023-01-25_09h43.59.421,knowing_that_K_ONLY,2022.2.5,59.738560835196225,
Does Anna know that the book is here?,Does Anna think that the book is here?,Is the book here?,early,3,per_3,per_K,1,1,1,no,O-B-X,O-B-O,O-B-X,M,stimuli/blue-M.png,mB-R,m0,stimuli/m0_w0_O-B-X.png,stimuli/m0_wW-R_O-B-X.png,stimuli/m0_none_O-B-X.png,stimuli/mW-R_none_O-B-X.png,stimuli/mB-R_none_O-B-X.png,stimuli/mB-R_none_O-B-O.png,stimuli/mB-R_none_O-B-X.png,stimuli/mW-L_none_O-B-X.png,stimuli/m0_none_O-B-X.png,stimuli/m0_wW-L_O-B-X.png,0,7,7,2,,,,,,,,,81.20779890299309,87.87851687840885,88.617928629159,88.617928629159,88.617928629159,89.50839315768098,89.50839315768098,left,0.20354002941166982,82.26147591002518,S1,K-M,2023-01-25_09h43.59.421,knowing_that_K_ONLY,2022.2.5,59.738560835196225,
Does Anna know that the book is here?,Does Anna think that the book is here?,Is the book here?,early,22,no_4,no_K,0,0,0,no,O-X-X,O-O-X,O-X-X,M,stimuli/blue-M.png,mB-M,m0,stimuli/m0_w0_O-X-X.png,stimuli/m0_wW-R_O-X-X.png,stimuli/m0_none_O-X-X.png,stimuli/mW-R_none_O-X-X.png,stimuli/mB-M_none_O-X-X.png,stimuli/mB-M_none_O-O-X.png,stimuli/mB-M_none_O-X-X.png,stimuli/mW-L_none_O-X-X.png,stimuli/m0_none_O-X-X.png,stimuli/m0_wW-L_O-X-X.png,0,8,8,21,,,,,,,,,89.74115531274583,96.41240646201186,97.14801638148492,97.14801638148492,97.14801638148492,98.04165140184341,98.04165140184341,right,0.5352460382273421,90.791749086231,S1,K-M,2023-01-25_09h43.59.421,knowing_that_K_ONLY,2022.2.5,59.738560835196225,
Does Anna know that the book is here?,Does Anna think that the book is here?,Is the book here?,late,10,mem_1,mem_K,1,1,1,no,O-X-B,X-X-B,X-X-X,R,stimuli/blue-R.png,mB-M,m0,stimuli/m0_w0_O-X-B.png,stimuli/mW-R_w0_O-X-B.png,stimuli/mB-M_w0_O-X-B.png,stimuli/mB-M_w0_X-X-B.png,stimuli/mB-M_w0_X-X-X.png,stimuli/mW-L_w0_X-X-X.png,stimuli/m0_wW-R_X-X-X.png,stimuli/m0_none_X-X-X.png,stimuli/m0_none_X-X-X.png,stimuli/m0_wW-L_X-X-X.png,0,9,9,9,,,,,,,,,98.60795391479041,105.27743744192412,106.01706669683335,106.01706669683335,106.01706669683335,106.90828864020295,106.90828864020295,right,0.748769021476619,99.66266230208566,S1,K-M,2023-01-25_09h43.59.421,knowing_that_K_ONLY,2022.2.5,59.738560835196225,
Does Anna know that the book is here?,Does Anna think that the book is here?,Is the book here?,late,16,mem_7,mem_K,1,1,1,switch,B-X-O,O-X-B,O-X-X,R,stimuli/blue-R.png,mB-M,m0,stimuli/m0_w0_B-X-O.png,stimuli/mW-R_w0_B-X-O.png,stimuli/mB-M_w0_B-X-O.png,stimuli/mB-M_w0_O-X-B.png,stimuli/mB-M_w0_O-X-X.png,stimuli/mW-L_w0_O-X-X.png,stimuli/m0_wW-R_O-X-X.png,stimuli/m0_none_O-X-X.png,stimuli/m0_none_O-X-X.png,stimuli/m0_wW-L_O-X-X.png,0,10,10,15,,,,,,,,,107.67471677949652,114.3434252475854,115.08551987021929,115.08551987021929,115.08551987021929,115.97488853719551,115.97488853719551,right,2.2170464592054486,108.73216161265736,S1,K-M,2023-01-25_09h43.59.421,knowing_that_K_ONLY,2022.2.5,59.738560835196225,
Does Anna know that the book is here?,Does Anna think that the book is here?,Is the book here?,early,2,per_2,per_K,1,1,1,no,X-X-B,O-X-B,X-X-B,R,stimuli/blue-R.png,mB-L,m0,stimuli/m0_w0_X-X-B.png,stimuli/m0_wW-R_X-X-B.png,stimuli/m0_none_X-X-B.png,stimuli/mW-R_none_X-X-B.png,stimuli/mB-L_none_X-X-B.png,stimuli/mB-L_none_O-X-B.png,stimuli/mB-L_none_X-X-B.png,stimuli/mW-L_none_X-X-B.png,stimuli/m0_none_X-X-B.png,stimuli/m0_wW-L_X-X-B.png,0,11,11,1,,,,,,,,,118.20805137464777,124.87803984497441,125.62198325287318,125.62198325287318,125.62198325287318,126.50809577369364,126.50809577369364,left,1.5158570516505279,119.26696580438875,S1,K-M,2023-01-25_09h43.59.421,knowing_that_K_ONLY,2022.2.5,59.738560835196225,
Does Anna know that the book is here?,Does Anna think that the book is here?,Is the book here?,late,18,mem_9,mem_K,1,1,1,switch,X-O-B,X-B-O,X-X-O,M,stimuli/blue-M.png,mB-L,m0,stimuli/m0_w0_X-O-B.png,stimuli/mW-R_w0_X-O-B.png,stimuli/mB-L_w0_X-O-B.png,stimuli/mB-L_w0_X-B-O.png,stimuli/mB-L_w0_X-X-O.png,stimuli/mW-L_w0_X-X-O.png,stimuli/m0_wW-R_X-X-O.png,stimuli/m0_none_X-X-O.png,stimuli/m0_none_X-X-O.png,stimuli/m0_wW-L_X-X-O.png,0,12,12,17,,,,,,,,,128.04138706054073,134.71201200317591,135.4506920032436,135.4506920032436,135.4506920032436,136.34157838718966,136.34157838718966,right,0.4261513495002873,129.09629402455175,S1,K-M,2023-01-25_09h43.59.421,knowing_that_K_ONLY,2022.2.5,59.738560835196225,
Does Anna know that the book is here?,Does Anna think that the book is here?,Is the book here?,late,13,mem_4,mem_K,1,1,1,no,B-X-O,B-X-O,X-X-O,L,stimuli/blue-L.png,mB-M,m0,stimuli/m0_w0_B-X-O.png,stimuli/mW-R_w0_B-X-O.png,stimuli/mB-M_w0_B-X-O.png,stimuli/mB-M_w0_B-X-O.png,stimuli/mB-M_w0_X-X-O.png,stimuli/mW-L_w0_X-X-O.png,stimuli/m0_wW-R_X-X-O.png,stimuli/m0_none_X-X-O.png,stimuli/m0_none_X-X-O.png,stimuli/m0_wW-L_X-X-O.png,0,13,13,12,,,,,,,,,136.7915707199718,143.4618584991549,144.19986577623058,144.19986577623058,144.19986577623058,145.09185924980557,145.09185924980557,right,0.9646065952838399,137.84440626186552,S1,K-M,2023-01-25_09h43.59.421,knowing_that_K_ONLY,2022.2.5,59.738560835196225,
Does Anna know that the book is here?,Does Anna think that the book is here?,Is the book here?,early,19,no_1,no_K,0,0,0,no,X-X-X,O-X-X,X-X-X,L,stimuli/blue-L.png,mB-L,m0,stimuli/m0_w0_X-X-X.png,stimuli/m0_wW-R_X-X-X.png,stimuli/m0_none_X-X-X.png,stimuli/mW-R_none_X-X-X.png,stimuli/mB-L_none_X-X-X.png,stimuli/mB-L_none_O-X-X.png,stimuli/mB-L_none_X-X-X.png,stimuli/mW-L_none_X-X-X.png,stimuli/m0_none_X-X-X.png,stimuli/m0_wW-L_X-X-X.png,0,14,14,18,,,,,,,,,146.07457921933383,152.74560709000798,153.48132736556,153.48132736556,153.48132736556,154.37494827061892,154.37494827061892,right,0.47349250566912815,147.12948329618666,S1,K-M,2023-01-25_09h43.59.421,knowing_that_K_ONLY,2022.2.5,59.738560835196225,
Does Anna know that the book is here?,Does Anna think that the book is here?,Is the book here?,early,27,no_9,no_K,0,0,0,hide,X-X-B,O-O-B,X-X-O,L,stimuli/blue-L.png,mB-M,m0,stimuli/m0_w0_X-X-B.png,stimuli/m0_wW-R_X-X-B.png,stimuli/m0_none_X-X-B.png,stimuli/mW-R_none_X-X-B.png,stimuli/mB-M_none_X-X-B.png,stimuli/mB-M_none_O-O-B.png,stimuli/mB-M_none_X-X-O.png,stimuli/mW-L_none_X-X-O.png,stimuli/m0_none_X-X-O.png,stimuli/m0_wW-L_X-X-O.png,0,15,15,26,,,,,,,,,154.8747564306832,161.54554786987137,162.28422883234452,162.28422883234452,162.28422883234452,163.17532085074345,163.17532085074345,right,0.48924391192849725,155.93580772634596,S1,K-M,2023-01-25_09h43.59.421,knowing_that_K_ONLY,2022.2.5,59.738560835196225,
Does Anna know that the book is here?,Does Anna think that the book is here?,Is the book here?,late,14,mem_5,mem_K,1,1,1,no,O-B-X,O-B-X,O-X-X,M,stimuli/blue-M.png,mB-L,m0,stimuli/m0_w0_O-B-X.png,stimuli/mW-R_w0_O-B-X.png,stimuli/mB-L_w0_O-B-X.png,stimuli/mB-L_w0_O-B-X.png,stimuli/mB-L_w0_O-X-X.png,stimuli/mW-L_w0_O-X-X.png,stimuli/m0_wW-R_O-X-X.png,stimuli/m0_none_O-X-X.png,stimuli/m0_none_O-X-X.png,stimuli/m0_wW-L_O-X-X.png,0,16,16,13,,,,,,,,,163.6915050196112,170.36165164562408,171.0997253288515,171.0997253288515,171.0997253288515,171.99146857648157,171.99146857648157,right,0.40893644193420187,164.741184184968,S1,K-M,2023-01-25_09h43.59.421,knowing_that_K_ONLY,2022.2.5,59.738560835196225,
Does Anna know that the book is here?,Does Anna think that the book is here?,Is the book here?,late,15,mem_6,mem_K,1,1,1,no,X-B-O,X-B-X,X-X-X,M,stimuli/blue-M.png,mB-R,m0,stimuli/m0_w0_X-B-O.png,stimuli/mW-R_w0_X-B-O.png,stimuli/mB-R_w0_X-B-O.png,stimuli/mB-R_w0_X-B-X.png,stimuli/mB-R_w0_X-X-X.png,stimuli/mW-L_w0_X-X-X.png,stimuli/m0_wW-R_X-X-X.png,stimuli/m0_none_X-X-X.png,stimuli/m0_none_X-X-X.png,stimuli/m0_wW-L_X-X-X.png,0,17,17,14,,,,,,,,,172.42480644379975,179.0949659019243,179.8364834007225,179.8364834007225,179.8364834007225,180.7248168378137,180.7248168378137,right,0.3397005102597177,173.47769876767416,S1,K-M,2023-01-25_09h43.59.421,knowing_that_K_ONLY,2022.2.5,59.738560835196225,
Does Anna know that the book is here?,Does Anna think that the book is here?,Is the book here?,late,17,mem_8,mem_K,1,1,1,switch,O-X-B,B-X-O,X-X-O,L,stimuli/blue-L.png,mB-M,m0,stimuli/m0_w0_O-X-B.png,stimuli/mW-R_w0_O-X-B.png,stimuli/mB-M_w0_O-X-B.png,stimuli/mB-M_w0_B-X-O.png,stimuli/mB-M_w0_X-X-O.png,stimuli/mW-L_w0_X-X-O.png,stimuli/m0_wW-R_X-X-O.png,stimuli/m0_none_X-X-O.png,stimuli/m0_none_X-X-O.png,stimuli/m0_wW-L_X-X-O.png,0,18,18,16,,,,,,,,,181.0915718107135,187.7605904949014,188.5007789086667,188.5007789086667,188.5007789086667,189.39177340304013,189.39177340304013,right,0.12052723130909726,182.14704884093953,S1,K-M,2023-01-25_09h43.59.421,knowing_that_K_ONLY,2022.2.5,59.738560835196225,
Does Anna know that the book is here?,Does Anna think that the book is here?,Is the book here?,early,20,no_2,no_K,0,0,0,no,X-O-X,O-O-X,X-O-X,L,stimuli/blue-L.png,mB-L,m0,stimuli/m0_w0_X-O-X.png,stimuli/m0_wW-R_X-O-X.png,stimuli/m0_none_X-O-X.png,stimuli/mW-R_none_X-O-X.png,stimuli/mB-L_none_X-O-X.png,stimuli/mB-L_none_O-O-X.png,stimuli/mB-L_none_X-O-X.png,stimuli/mW-L_none_X-O-X.png,stimuli/m0_none_X-O-X.png,stimuli/m0_wW-L_X-O-X.png,0,19,19,19,,,,,,,,,189.54148362210253,196.21141466876725,196.9530877568759,196.9530877568759,196.9530877568759,197.84199350571726,197.84199350571726,right,1.3096980914124288,190.59709923900664,S1,K-M,2023-01-25_09h43.59.421,knowing_that_K_ONLY,2022.2.5,59.738560835196225,
Does Anna know that the book is here?,Does Anna think that the book is here?,Is the book here?,late,12,mem_3,mem_K,1,1,1,no,X-O-B,X-O-B,X-O-X,R,stimuli/blue-R.png,mB-M,m0,stimuli/m0_w0_X-O-B.png,stimuli/mW-R_w0_X-O-B.png,stimuli/mB-M_w0_X-O-B.png,stimuli/mB-M_w0_X-O-B.png,stimuli/mB-M_w0_X-O-X.png,stimuli/mW-L_w0_X-O-X.png,stimuli/m0_wW-R_X-O-X.png,stimuli/m0_none_X-O-X.png,stimuli/m0_none_X-O-X.png,stimuli/m0_wW-L_X-O-X.png,0,20,20,11,,,,,,,,,199.17467347113416,205.84628327767132,206.58356457855552,206.58356457855552,206.58356457855552,207.4750245574396,207.4750245574396,right,2.301606167340651,200.2329703559517,S1,K-M,2023-01-25_09h43.59.421,knowing_that_K_ONLY,2022.2.5,59.738560835196225,
Does Anna know that the book is here?,Does Anna think that the book is here?,Is the book here?,late,11,mem_2,mem_K,1,1,1,no,O-B-O,O-B-X,O-X-X,M,stimuli/blue-M.png,mB-L,m0,stimuli/m0_w0_O-B-O.png,stimuli/mW-R_w0_O-B-O.png,stimuli/mB-L_w0_O-B-O.png,stimuli/mB-L_w0_O-B-X.png,stimuli/mB-L_w0_O-X-X.png,stimuli/mW-L_w0_O-X-X.png,stimuli/m0_wW-R_O-X-X.png,stimuli/m0_none_O-X-X.png,stimuli/m0_none_O-X-X.png,stimuli/m0_wW-L_O-X-X.png,0,21,21,10,,,,,,,,,209.8080683129956,216.47713447595015,217.2182448763051,217.2182448763051,217.2182448763051,218.10755804443033,218.10755804443033,right,0.5967801417573355,210.8665794939152,S1,K-M,2023-01-25_09h43.59.421,knowing_that_K_ONLY,2022.2.5,59.738560835196225,
Does Anna know that the book is here?,Does Anna think that the book is here?,Is the book here?,early,25,no_7,no_K,0,0,0,hide,B-X-X,B-O-O,O-X-X,M,stimuli/blue-M.png,mB-L,m0,stimuli/m0_w0_B-X-X.png,stimuli/m0_wW-R_B-X-X.png,stimuli/m0_none_B-X-X.png,stimuli/mW-R_none_B-X-X.png,stimuli/mB-L_none_B-X-X.png,stimuli/mB-L_none_B-O-O.png,stimuli/mB-L_none_O-X-X.png,stimuli/mW-L_none_O-X-X.png,stimuli/m0_none_O-X-X.png,stimuli/m0_wW-L_O-X-X.png,0,22,22,24,,,,,,,,,218.7247289379011,225.39479375927476,226.13474734552437,226.13474734552437,226.13474734552437,227.02506141766207,227.02506141766207,right,0.15208714664913714,219.77670152083738,S1,K-M,2023-01-25_09h43.59.421,knowing_that_K_ONLY,2022.2.5,59.738560835196225,
Does Anna know that the book is here?,Does Anna think that the book is here?,Is the book here?,early,23,no_5,no_K,0,0,0,no,X-O-X,X-O-O,X-O-X,R,stimuli/blue-R.png,mB-R,m0,stimuli/m0_w0_X-O-X.png,stimuli/m0_wW-R_X-O-X.png,stimuli/m0_none_X-O-X.png,stimuli/mW-R_none_X-O-X.png,stimuli/mB-R_none_X-O-X.png,stimuli/mB-R_none_X-O-O.png,stimuli/mB-R_none_X-O-X.png,stimuli/mW-L_none_X-O-X.png,stimuli/m0_none_X-O-X.png,stimuli/m0_wW-L_X-O-X.png,0,23,23,22,,,,,,,,,227.2081687884056,233.87901091435924,234.61743523477344,234.61743523477344,234.61743523477344,235.5085320651997,235.5085320651997,right,0.51537616859423,228.2587632034556,S1,K-M,2023-01-25_09h43.59.421,knowing_that_K_ONLY,2022.2.5,59.738560835196225,
Does Anna know that the book is here?,Does Anna think that the book is here?,Is the book here?,early,9,per_9,per_K,1,1,1,switch,X-O-B,X-B-O,X-B-X,M,stimuli/blue-M.png,mB-R,m0,stimuli/m0_w0_X-O-B.png,stimuli/m0_wW-R_X-O-B.png,stimuli/m0_none_X-O-B.png,stimuli/mW-R_none_X-O-B.png,stimuli/mB-R_none_X-O-B.png,stimuli/mB-R_none_X-B-O.png,stimuli/mB-R_none_X-B-X.png,stimuli/mW-L_none_X-B-X.png,stimuli/m0_none_X-B-X.png,stimuli/m0_wW-L_X-B-X.png,0,24,24,8,,,,,,,,,236.0415824293159,242.71279444062384,243.4521580709843,243.4521580709843,243.4521580709843,244.34174969576998,244.34174969576998,left,0.010181412508245558,237.09475481382105,S1,K-M,2023-01-25_09h43.59.421,knowing_that_K_ONLY,2022.2.5,59.738560835196225,
Does Anna know that the book is here?,Does Anna think that the book is here?,Is the book here?,early,28,no_10,no_K,0,0,0,hide,O-B-O,O-B-O,X-O-X,L,stimuli/blue-L.png,mB-M,m0,stimuli/m0_w0_O-B-O.png,stimuli/m0_wW-R_O-B-O.png,stimuli/m0_none_O-B-O.png,stimuli/mW-R_none_O-B-O.png,stimuli/mB-M_none_O-B-O.png,stimuli/mB-M_none_O-B-O.png,stimuli/mB-M_none_X-O-X.png,stimuli/mW-L_none_X-O-X.png,stimuli/m0_none_X-O-X.png,stimuli/m0_wW-L_X-O-X.png,0,25,25,27,,,,,,,,,244.37494698743103,251.04289900301956,251.78090948815225,251.78090948815225,251.78090948815225,252.67546168307308,252.67546168307308,right,0.4060495395679027,245.43406320200302,S1,K-M,2023-01-25_09h43.59.421,knowing_that_K_ONLY,2022.2.5,59.738560835196225,
Does Anna know that the book is here?,Does Anna think that the book is here?,Is the book here?,early,24,no_6,no_K,0,0,0,no,X-X-X,X-X-O,X-X-X,R,stimuli/blue-R.png,mB-R,m0,stimuli/m0_w0_X-X-X.png,stimuli/m0_wW-R_X-X-X.png,stimuli/m0_none_X-X-X.png,stimuli/mW-R_none_X-X-X.png,stimuli/mB-R_none_X-X-X.png,stimuli/mB-R_none_X-X-O.png,stimuli/mB-R_none_X-X-X.png,stimuli/mW-L_none_X-X-X.png,stimuli/m0_none_X-X-X.png,stimuli/m0_wW-L_X-X-X.png,0,26,26,23,,,,,,,,,253.1082679805113,259.777535286732,260.51908229937544,260.51908229937544,260.51908229937544,261.4085754377302,261.4085754377302,right,0.37578566663432866,254.16644199797884,S1,K-M,2023-01-25_09h43.59.421,knowing_that_K_ONLY,2022.2.5,59.738560835196225,
Does Anna know that the book is here?,Does Anna think that the book is here?,Is the book here?,early,7,per_7,per_K,1,1,1,switch,B-X-O,O-X-B,X-X-B,R,stimuli/blue-R.png,mB-R,m0,stimuli/m0_w0_B-X-O.png,stimuli/m0_wW-R_B-X-O.png,stimuli/m0_none_B-X-O.png,stimuli/mW-R_none_B-X-O.png,stimuli/mB-R_none_B-X-O.png,stimuli/mB-R_none_O-X-B.png,stimuli/mB-R_none_X-X-B.png,stimuli/mW-L_none_X-X-B.png,stimuli/m0_none_X-X-B.png,stimuli/m0_wW-L_X-X-B.png,0,27,27,6,,,,,,,,,261.8081193206017,268.47913852962665,269.2173103784444,269.2173103784444,269.2173103784444,270.1084392890916,270.1084392890916,left,0.8113043498597108,262.863296079624,S1,K-M,2023-01-25_09h43.59.421,knowing_that_K_ONLY,2022.2.5,59.738560835196225,
,,,,,,,,,,,,,,,,,,,,,,,,,,,,,,,,,,,,13.361320256546605,13.361320256546605,left,3.8889992365729995,,,,,,,,,,,S1,K-M,2023-01-25_09h48.50.143,knowing_that_K_ONLY,2022.2.5,60.02129601145046,
Does Anna know that the book is here?,Does Anna think that the book is here?,Is the book here?,early,27,no_9,no_K,0,0,0,hide,X-X-B,O-O-B,X-X-O,L,stimuli/blue-L.png,mB-M,m0,stimuli/m0_w0_X-X-B.png,stimuli/m0_wW-R_X-X-B.png,stimuli/m0_none_X-X-B.png,stimuli/mW-R_none_X-X-B.png,stimuli/mB-M_none_X-X-B.png,stimuli/mB-M_none_O-O-B.png,stimuli/mB-M_none_X-X-O.png,stimuli/mW-L_none_X-X-O.png,stimuli/m0_none_X-X-O.png,stimuli/m0_wW-L_X-X-O.png,0,0,0,26,,,,,,,,,17.311924680660013,23.933344604156446,24.693053854396567,24.693053854396567,24.693053854396567,25.581956395180896,25.581956395180896,right,0.020907158555928618,,S1,K-M,2023-01-25_09h48.50.143,knowing_that_K_ONLY,2022.2.5,60.02129601145046,
Does Anna know that the book is here?,Does Anna think that the book is here?,Is the book here?,early,20,no_2,no_K,0,0,0,no,X-O-X,O-O-X,X-O-X,L,stimuli/blue-L.png,mB-L,m0,stimuli/m0_w0_X-O-X.png,stimuli/m0_wW-R_X-O-X.png,stimuli/m0_none_X-O-X.png,stimuli/mW-R_none_X-O-X.png,stimuli/mB-L_none_X-O-X.png,stimuli/mB-L_none_O-O-X.png,stimuli/mB-L_none_X-O-X.png,stimuli/mW-L_none_X-O-X.png,stimuli/m0_none_X-O-X.png,stimuli/m0_wW-L_X-O-X.png,0,1,1,19,,,,,,,,,25.63201603241032,32.283649142074864,33.0258409678936,33.0258409678936,33.0258409678936,33.93226574512664,33.93226574512664,right,0.14271429076325148,26.693638677475974,S1,K-M,2023-01-25_09h48.50.143,knowing_that_K_ONLY,2022.2.5,60.02129601145046,
Does Anna know that the book is here?,Does Anna think that the book is here?,Is the book here?,early,24,no_6,no_K,0,0,0,no,X-X-X,X-X-O,X-X-X,R,stimuli/blue-R.png,mB-R,m0,stimuli/m0_w0_X-X-X.png,stimuli/m0_wW-R_X-X-X.png,stimuli/m0_none_X-X-X.png,stimuli/mW-R_none_X-X-X.png,stimuli/mB-R_none_X-X-X.png,stimuli/mB-R_none_X-X-O.png,stimuli/mB-R_none_X-X-X.png,stimuli/mW-L_none_X-X-X.png,stimuli/m0_none_X-X-X.png,stimuli/m0_wW-L_X-X-X.png,0,2,2,23,,,,,,,,,34.09885402902728,40.74938101141015,41.4885412529693,41.4885412529693,41.4885412529693,42.39923045877367,42.39923045877367,right,0.2510323164751753,35.14801670226734,S1,K-M,2023-01-25_09h48.50.143,knowing_that_K_ONLY,2022.2.5,60.02129601145046,
Does Anna know that the book is here?,Does Anna think that the book is here?,Is the book here?,late,15,mem_6,mem_K,1,1,1,no,X-B-O,X-B-X,X-X-X,M,stimuli/blue-M.png,mB-R,m0,stimuli/m0_w0_X-B-O.png,stimuli/mW-R_w0_X-B-O.png,stimuli/mB-R_w0_X-B-O.png,stimuli/mB-R_w0_X-B-X.png,stimuli/mB-R_w0_X-X-X.png,stimuli/mW-L_w0_X-X-X.png,stimuli/m0_wW-R_X-X-X.png,stimuli/m0_none_X-X-X.png,stimuli/m0_none_X-X-X.png,stimuli/m0_wW-L_X-X-X.png,0,3,3,14,,,,,,,,,42.68249944981653,49.332748617162,50.095478865201585,50.095478865201585,50.095478865201585,50.98220283573028,50.98220283573028,None,,43.73766626394354,S1,K-M,2023-01-25_09h48.50.143,knowing_that_K_ONLY,2022.2.5,60.02129601145046,
Does Anna know that the book is here?,Does Anna think that the book is here?,Is the book here?,early,2,per_2,per_K,1,1,1,no,X-X-B,O-X-B,X-X-B,R,stimuli/blue-R.png,mB-L,m0,stimuli/m0_w0_X-X-B.png,stimuli/m0_wW-R_X-X-B.png,stimuli/m0_none_X-X-B.png,stimuli/mW-R_none_X-X-B.png,stimuli/mB-L_none_X-X-B.png,stimuli/mB-L_none_O-X-B.png,stimuli/mB-L_none_X-X-B.png,stimuli/mW-L_none_X-X-B.png,stimuli/m0_none_X-X-B.png,stimuli/m0_wW-L_X-X-B.png,0,4,4,1,,,,,,,,,53.99856761650881,60.63400115870172,61.39671825384721,61.39671825384721,61.39671825384721,62.28247275901958,62.28247275901958,left,0.576558384578675,,S1,K-M,2023-01-25_09h48.50.143,knowing_that_K_ONLY,2022.2.5,60.02129601145046,
Does Anna know that the book is here?,Does Anna think that the book is here?,Is the book here?,early,25,no_7,no_K,0,0,0,hide,B-X-X,B-O-O,O-X-X,M,stimuli/blue-M.png,mB-L,m0,stimuli/m0_w0_B-X-X.png,stimuli/m0_wW-R_B-X-X.png,stimuli/m0_none_B-X-X.png,stimuli/mW-R_none_B-X-X.png,stimuli/mB-L_none_B-X-X.png,stimuli/mB-L_none_B-O-O.png,stimuli/mB-L_none_O-X-X.png,stimuli/mW-L_none_O-X-X.png,stimuli/m0_none_O-X-X.png,stimuli/m0_wW-L_O-X-X.png,0,5,5,24,,,,,,,,,62.88233603298431,69.5334202494123,70.27293690259103,70.27293690259103,70.27293690259103,71.1822768127895,71.1822768127895,right,0.44428955973125994,63.9432590076467,S1,K-M,2023-01-25_09h48.50.143,knowing_that_K_ONLY,2022.2.5,60.02129601145046,
Does Anna know that the book is here?,Does Anna think that the book is here?,Is the book here?,late,4,per_4,per_K,1,1,1,no,O-X-B,O-O-B,O-X-B,R,stimuli/blue-R.png,mB-M,m0,stimuli/m0_w0_O-X-B.png,stimuli/mW-R_w0_O-X-B.png,stimuli/mB-M_w0_O-X-B.png,stimuli/mB-M_w0_O-O-B.png,stimuli/mB-M_w0_O-X-B.png,stimuli/mW-L_w0_O-X-B.png,stimuli/m0_wW-R_O-X-B.png,stimuli/m0_none_O-X-B.png,stimuli/m0_none_O-X-B.png,stimuli/m0_wW-L_O-X-B.png,0,6,6,3,,,,,,,,,71.64919693488628,78.32061105186585,79.06279261200689,79.06279261200689,79.06279261200689,79.94924518361222,79.94924518361222,left,0.24545773019781336,72.71098351007095,S1,K-M,2023-01-25_09h48.50.143,knowing_that_K_ONLY,2022.2.5,60.02129601145046,
Does Anna know that the book is here?,Does Anna think that the book is here?,Is the book here?,late,6,per_6,per_K,1,1,1,no,X-B-X,O-B-X,X-B-X,M,stimuli/blue-M.png,mB-L,m0,stimuli/m0_w0_X-B-X.png,stimuli/mW-R_w0_X-B-X.png,stimuli/mB-L_w0_X-B-X.png,stimuli/mB-L_w0_O-B-X.png,stimuli/mB-L_w0_X-B-X.png,stimuli/mW-L_w0_X-B-X.png,stimuli/m0_wW-R_X-B-X.png,stimuli/m0_none_X-B-X.png,stimuli/m0_none_X-B-X.png,stimuli/m0_wW-L_X-B-X.png,0,7,7,5,,,,,,,,,80.2158212128561,86.89338222792139,87.60849542950746,87.60849542950746,87.60849542950746,88.51559966657078,88.51559966657078,left,0.3917584595037624,81.26842160639353,S1,K-M,2023-01-25_09h48.50.143,knowing_that_K_ONLY,2022.2.5,60.02129601145046,
Does Anna know that the book is here?,Does Anna think that the book is here?,Is the book here?,late,11,mem_2,mem_K,1,1,1,no,O-B-O,O-B-X,O-X-X,M,stimuli/blue-M.png,mB-L,m0,stimuli/m0_w0_O-B-O.png,stimuli/mW-R_w0_O-B-O.png,stimuli/mB-L_w0_O-B-O.png,stimuli/mB-L_w0_O-B-X.png,stimuli/mB-L_w0_O-X-X.png,stimuli/mW-L_w0_O-X-X.png,stimuli/m0_wW-R_O-X-X.png,stimuli/m0_none_O-X-X.png,stimuli/m0_none_O-X-X.png,stimuli/m0_wW-L_O-X-X.png,0,8,8,10,,,,,,,,,88.9321759204031,95.60681474482408,96.32392365921987,96.32392365921987,96.32392365921987,97.2321725198999,97.2321725198999,right,0.4827592416550033,89.98050931899343,S1,K-M,2023-01-25_09h48.50.143,knowing_that_K_ONLY,2022.2.5,60.02129601145046,
Does Anna know that the book is here?,Does Anna think that the book is here?,Is the book here?,early,28,no_10,no_K,0,0,0,hide,O-B-O,O-B-O,X-O-X,L,stimuli/blue-L.png,mB-M,m0,stimuli/m0_w0_O-B-O.png,stimuli/m0_wW-R_O-B-O.png,stimuli/m0_none_O-B-O.png,stimuli/mW-R_none_O-B-O.png,stimuli/mB-M_none_O-B-O.png,stimuli/mB-M_none_O-B-O.png,stimuli/mB-M_none_X-O-X.png,stimuli/mW-L_none_X-O-X.png,stimuli/m0_none_X-O-X.png,stimuli/m0_wW-L_X-O-X.png,0,9,9,27,,,,,,,,,97.73208526161034,104.38371003040811,105.1233591750497,105.1233591750497,105.1233591750497,106.03280013805488,106.03280013805488,right,0.35394321486819535,98.78569746646099,S1,K-M,2023-01-25_09h48.50.143,knowing_that_K_ONLY,2022.2.5,60.02129601145046,
Does Anna know that the book is here?,Does Anna think that the book is here?,Is the book here?,late,5,per_5,per_K,1,1,1,no,X-B-O,O-B-O,X-B-O,M,stimuli/blue-M.png,mB-L,m0,stimuli/m0_w0_X-B-O.png,stimuli/mW-R_w0_X-B-O.png,stimuli/mB-L_w0_X-B-O.png,stimuli/mB-L_w0_O-B-O.png,stimuli/mB-L_w0_X-B-O.png,stimuli/mW-L_w0_X-B-O.png,stimuli/m0_wW-R_X-B-O.png,stimuli/m0_none_X-B-O.png,stimuli/m0_none_X-B-O.png,stimuli/m0_wW-L_X-B-O.png,0,10,10,4,,,,,,,,,106.41594266868196,113.06716675509233,113.80735292320605,113.80735292320605,113.80735292320605,114.71549656067509,114.71549656067509,left,0.32704584405291826,107.47966336261015,S1,K-M,2023-01-25_09h48.50.143,knowing_that_K_ONLY,2022.2.5,60.02129601145046,
Does Anna know that the book is here?,Does Anna think that the book is here?,Is the book here?,early,1,per_1,per_K,1,1,1,no,B-X-X,B-O-X,B-X-X,L,stimuli/blue-L.png,mB-M,m0,stimuli/m0_w0_B-X-X.png,stimuli/m0_wW-R_B-X-X.png,stimuli/m0_none_B-X-X.png,stimuli/mW-R_none_B-X-X.png,stimuli/mB-M_none_B-X-X.png,stimuli/mB-M_none_B-O-X.png,stimuli/mB-M_none_B-X-X.png,stimuli/mW-L_none_B-X-X.png,stimuli/m0_none_B-X-X.png,stimuli/m0_wW-L_B-X-X.png,0,11,11,0,,,,,,,,,115.06544789491454,121.74205933435587,122.4545438796631,122.4545438796631,122.4545438796631,123.36587629467249,123.36587629467249,left,0.781610255187843,116.10603968583746,S1,K-M,2023-01-25_09h48.50.143,knowing_that_K_ONLY,2022.2.5,60.02129601145046,
Does Anna know that the book is here?,Does Anna think that the book is here?,Is the book here?,early,19,no_1,no_K,0,0,0,no,X-X-X,O-X-X,X-X-X,L,stimuli/blue-L.png,mB-L,m0,stimuli/m0_w0_X-X-X.png,stimuli/m0_wW-R_X-X-X.png,stimuli/m0_none_X-X-X.png,stimuli/mW-R_none_X-X-X.png,stimuli/mB-L_none_X-X-X.png,stimuli/mB-L_none_O-X-X.png,stimuli/mB-L_none_X-X-X.png,stimuli/mW-L_none_X-X-X.png,stimuli/m0_none_X-X-X.png,stimuli/m0_wW-L_X-X-X.png,0,12,12,18,,,,,,,,,124.1659591900534,130.8162003373145,131.5541463411064,131.5541463411064,131.5541463411064,132.4656969018397,132.4656969018397,right,0.5527259616064839,125.22269376635086,S1,K-M,2023-01-25_09h48.50.143,knowing_that_K_ONLY,2022.2.5,60.02129601145046,
Does Anna know that the book is here?,Does Anna think that the book is here?,Is the book here?,early,26,no_8,no_K,0,0,0,hide,X-B-O,O-B-O,X-O-X,R,stimuli/blue-R.png,mB-L,m0,stimuli/m0_w0_X-B-O.png,stimuli/m0_wW-R_X-B-O.png,stimuli/m0_none_X-B-O.png,stimuli/mW-R_none_X-B-O.png,stimuli/mB-L_none_X-B-O.png,stimuli/mB-L_none_O-B-O.png,stimuli/mB-L_none_X-O-X.png,stimuli/mW-L_none_X-O-X.png,stimuli/m0_none_X-O-X.png,stimuli/m0_wW-L_X-O-X.png,0,13,13,25,,,,,,,,,133.04882486810675,139.72235018678475,140.45756904792506,140.45756904792506,140.45756904792506,141.34917499200674,141.34917499200674,right,0.3577777679893188,134.09558408841258,S1,K-M,2023-01-25_09h48.50.143,knowing_that_K_ONLY,2022.2.5,60.02129601145046,
Does Anna know that the book is here?,Does Anna think that the book is here?,Is the book here?,late,13,mem_4,mem_K,1,1,1,no,B-X-O,B-X-O,X-X-O,L,stimuli/blue-L.png,mB-M,m0,stimuli/m0_w0_B-X-O.png,stimuli/mW-R_w0_B-X-O.png,stimuli/mB-M_w0_B-X-O.png,stimuli/mB-M_w0_B-X-O.png,stimuli/mB-M_w0_X-X-O.png,stimuli/mW-L_w0_X-X-O.png,stimuli/m0_wW-R_X-X-O.png,stimuli/m0_none_X-X-O.png,stimuli/m0_none_X-X-O.png,stimuli/m0_wW-L_X-X-O.png,0,14,14,12,,,,,,,,,141.73258635523962,148.38493389217183,149.12348974170163,149.12348974170163,149.12348974170163,150.03220023727044,150.03220023727044,right,0.48324493668042123,142.78006802295567,S1,K-M,2023-01-25_09h48.50.143,knowing_that_K_ONLY,2022.2.5,60.02129601145046,
Does Anna know that the book is here?,Does Anna think that the book is here?,Is the book here?,late,16,mem_7,mem_K,1,1,1,switch,B-X-O,O-X-B,O-X-X,R,stimuli/blue-R.png,mB-M,m0,stimuli/m0_w0_B-X-O.png,stimuli/mW-R_w0_B-X-O.png,stimuli/mB-M_w0_B-X-O.png,stimuli/mB-M_w0_O-X-B.png,stimuli/mB-M_w0_O-X-X.png,stimuli/mW-L_w0_O-X-X.png,stimuli/m0_wW-R_O-X-X.png,stimuli/m0_none_O-X-X.png,stimuli/m0_none_O-X-X.png,stimuli/m0_wW-L_O-X-X.png,0,15,15,15,,,,,,,,,150.53231155575486,157.20321559661534,157.9233002756955,157.9233002756955,157.9233002756955,158.83248010539683,158.83248010539683,right,0.49153992877108976,151.57162366522243,S1,K-M,2023-01-25_09h48.50.143,knowing_that_K_ONLY,2022.2.5,60.02129601145046,
Does Anna know that the book is here?,Does Anna think that the book is here?,Is the book here?,early,3,per_3,per_K,1,1,1,no,O-B-X,O-B-O,O-B-X,M,stimuli/blue-M.png,mB-R,m0,stimuli/m0_w0_O-B-X.png,stimuli/m0_wW-R_O-B-X.png,stimuli/m0_none_O-B-X.png,stimuli/mW-R_none_O-B-X.png,stimuli/mB-R_none_O-B-X.png,stimuli/mB-R_none_O-B-O.png,stimuli/mB-R_none_O-B-X.png,stimuli/mW-L_none_O-B-X.png,stimuli/m0_none_O-B-X.png,stimuli/m0_wW-L_O-B-X.png,0,16,16,2,,,,,,,,,159.34890166821424,166.00104004191235,166.7398964834283,166.7398964834283,166.7398964834283,167.64885271375533,167.64885271375533,left,0.2179989549331367,160.40733874373836,S1,K-M,2023-01-25_09h48.50.143,knowing_that_K_ONLY,2022.2.5,60.02129601145046,
Does Anna know that the book is here?,Does Anna think that the book is here?,Is the book here?,late,14,mem_5,mem_K,1,1,1,no,O-B-X,O-B-X,O-X-X,M,stimuli/blue-M.png,mB-L,m0,stimuli/m0_w0_O-B-X.png,stimuli/mW-R_w0_O-B-X.png,stimuli/mB-L_w0_O-B-X.png,stimuli/mB-L_w0_O-B-X.png,stimuli/mB-L_w0_O-X-X.png,stimuli/mW-L_w0_O-X-X.png,stimuli/m0_wW-R_O-X-X.png,stimuli/m0_none_O-X-X.png,stimuli/m0_none_O-X-X.png,stimuli/m0_wW-L_O-X-X.png,0,17,17,13,,,,,,,,,167.89901872904738,174.57091052108444,175.28876177262282,175.28876177262282,175.28876177262282,176.19931399577763,176.19931399577763,right,0.7396685269777663,168.95003532036208,S1,K-M,2023-01-25_09h48.50.143,knowing_that_K_ONLY,2022.2.5,60.02129601145046,
Does Anna know that the book is here?,Does Anna think that the book is here?,Is the book here?,late,12,mem_3,mem_K,1,1,1,no,X-O-B,X-O-B,X-O-X,R,stimuli/blue-R.png,mB-M,m0,stimuli/m0_w0_X-O-B.png,stimuli/mW-R_w0_X-O-B.png,stimuli/mB-M_w0_X-O-B.png,stimuli/mB-M_w0_X-O-B.png,stimuli/mB-M_w0_X-O-X.png,stimuli/mW-L_w0_X-O-X.png,stimuli/m0_wW-R_X-O-X.png,stimuli/m0_none_X-O-X.png,stimuli/m0_none_X-O-X.png,stimuli/m0_wW-L_X-O-X.png,0,18,18,11,,,,,,,,,176.96584415022517,183.61787537590135,184.3771890765056,184.3771890765056,184.3771890765056,185.26611792313633,185.26611792313633,right,0.27288955805124715,178.01885035907617,S1,K-M,2023-01-25_09h48.50.143,knowing_that_K_ONLY,2022.2.5,60.02129601145046,
Does Anna know that the book is here?,Does Anna think that the book is here?,Is the book here?,early,21,no_3,no_K,0,0,0,no,X-X-O,X-O-O,X-X-O,M,stimuli/blue-M.png,mB-M,m0,stimuli/m0_w0_X-X-O.png,stimuli/m0_wW-R_X-X-O.png,stimuli/m0_none_X-X-O.png,stimuli/mW-R_none_X-X-O.png,stimuli/mB-M_none_X-X-O.png,stimuli/mB-M_none_X-O-O.png,stimuli/mB-M_none_X-X-O.png,stimuli/mW-L_none_X-X-O.png,stimuli/m0_none_X-X-O.png,stimuli/m0_wW-L_X-X-O.png,0,19,19,20,,,,,,,,,185.5660538909724,192.21545934752794,192.95424457086483,192.95424457086483,192.95424457086483,193.8657829411095,193.8657829411095,right,0.5851773872273043,186.6222992433468,S1,K-M,2023-01-25_09h48.50.143,knowing_that_K_ONLY,2022.2.5,60.02129601145046,
Does Anna know that the book is here?,Does Anna think that the book is here?,Is the book here?,early,8,per_8,per_K,1,1,1,switch,O-X-B,B-X-O,B-X-X,L,stimuli/blue-L.png,mB-L,m0,stimuli/m0_w0_O-X-B.png,stimuli/m0_wW-R_O-X-B.png,stimuli/m0_none_O-X-B.png,stimuli/mW-R_none_O-X-B.png,stimuli/mB-L_none_O-X-B.png,stimuli/mB-L_none_B-X-O.png,stimuli/mB-L_none_B-X-X.png,stimuli/mW-L_none_B-X-X.png,stimuli/m0_none_B-X-X.png,stimuli/m0_wW-L_B-X-X.png,0,20,20,7,,,,,,,,,194.4824751971173,201.1348795161466,201.8717906108359,201.8717906108359,201.8717906108359,202.78246666380437,202.78246666380437,left,0.3005898976116441,195.54196675069397,S1,K-M,2023-01-25_09h48.50.143,knowing_that_K_ONLY,2022.2.5,60.02129601145046,
Does Anna know that the book is here?,Does Anna think that the book is here?,Is the book here?,early,9,per_9,per_K,1,1,1,switch,X-O-B,X-B-O,X-B-X,M,stimuli/blue-M.png,mB-R,m0,stimuli/m0_w0_X-O-B.png,stimuli/m0_wW-R_X-O-B.png,stimuli/m0_none_X-O-B.png,stimuli/mW-R_none_X-O-B.png,stimuli/mB-R_none_X-O-B.png,stimuli/mB-R_none_X-B-O.png,stimuli/mB-R_none_X-B-X.png,stimuli/mW-L_none_X-B-X.png,stimuli/m0_none_X-B-X.png,stimuli/m0_wW-L_X-B-X.png,0,21,21,8,,,,,,,,,203.09943981451215,209.75006784970174,210.4893583370722,210.4893583370722,210.4893583370722,211.39932926598703,211.39932926598703,left,0.6039866835926659,204.16020302951802,S1,K-M,2023-01-25_09h48.50.143,knowing_that_K_ONLY,2022.2.5,60.02129601145046,
Does Anna know that the book is here?,Does Anna think that the book is here?,Is the book here?,late,10,mem_1,mem_K,1,1,1,no,O-X-B,X-X-B,X-X-X,R,stimuli/blue-R.png,mB-M,m0,stimuli/m0_w0_O-X-B.png,stimuli/mW-R_w0_O-X-B.png,stimuli/mB-M_w0_O-X-B.png,stimuli/mB-M_w0_X-X-B.png,stimuli/mB-M_w0_X-X-X.png,stimuli/mW-L_w0_X-X-X.png,stimuli/m0_wW-R_X-X-X.png,stimuli/m0_none_X-X-X.png,stimuli/m0_none_X-X-X.png,stimuli/m0_wW-L_X-X-X.png,0,22,22,9,,,,,,,,,212.03253836312797,218.68432449561078,219.42416868824512,219.42416868824512,219.42416868824512,220.3323318946059,220.3323318946059,right,0.5674440627335571,213.08239236590452,S1,K-M,2023-01-25_09h48.50.143,knowing_that_K_ONLY,2022.2.5,60.02129601145046,
Does Anna know that the book is here?,Does Anna think that the book is here?,Is the book here?,late,17,mem_8,mem_K,1,1,1,switch,O-X-B,B-X-O,X-X-O,L,stimuli/blue-L.png,mB-M,m0,stimuli/m0_w0_O-X-B.png,stimuli/mW-R_w0_O-X-B.png,stimuli/mB-M_w0_O-X-B.png,stimuli/mB-M_w0_B-X-O.png,stimuli/mB-M_w0_X-X-O.png,stimuli/mW-L_w0_X-X-O.png,stimuli/m0_wW-R_X-X-O.png,stimuli/m0_none_X-X-O.png,stimuli/m0_none_X-X-O.png,stimuli/m0_wW-L_X-X-O.png,0,23,23,16,,,,,,,,,220.93249640217982,227.58407048415393,228.32288425887236,228.32288425887236,228.32288425887236,229.23257480631582,229.23257480631582,right,0.7064962579752319,221.98143162636552,S1,K-M,2023-01-25_09h48.50.143,knowing_that_K_ONLY,2022.2.5,60.02129601145046,
Does Anna know that the book is here?,Does Anna think that the book is here?,Is the book here?,early,22,no_4,no_K,0,0,0,no,O-X-X,O-O-X,O-X-X,M,stimuli/blue-M.png,mB-M,m0,stimuli/m0_w0_O-X-X.png,stimuli/m0_wW-R_O-X-X.png,stimuli/m0_none_O-X-X.png,stimuli/mW-R_none_O-X-X.png,stimuli/mB-M_none_O-X-X.png,stimuli/mB-M_none_O-O-X.png,stimuli/mB-M_none_O-X-X.png,stimuli/mW-L_none_O-X-X.png,stimuli/m0_none_O-X-X.png,stimuli/m0_wW-L_O-X-X.png,0,24,24,21,,,,,,,,,229.966072561685,236.61752890911885,237.35516694240505,237.35516694240505,237.35516694240505,238.2658397873165,238.2658397873165,right,0.04085081280209124,231.0223589767702,S1,K-M,2023-01-25_09h48.50.143,knowing_that_K_ONLY,2022.2.5,60.02129601145046,
Does Anna know that the book is here?,Does Anna think that the book is here?,Is the book here?,late,18,mem_9,mem_K,1,1,1,switch,X-O-B,X-B-O,X-X-O,M,stimuli/blue-M.png,mB-L,m0,stimuli/m0_w0_X-O-B.png,stimuli/mW-R_w0_X-O-B.png,stimuli/mB-L_w0_X-O-B.png,stimuli/mB-L_w0_X-B-O.png,stimuli/mB-L_w0_X-X-O.png,stimuli/mW-L_w0_X-X-O.png,stimuli/m0_wW-R_X-X-O.png,stimuli/m0_none_X-X-O.png,stimuli/m0_none_X-X-O.png,stimuli/m0_wW-L_X-X-O.png,0,25,25,17,,,,,,,,,238.33293211623095,245.00604648684384,245.72538882872323,245.72538882872323,245.72538882872323,246.6328241340816,246.6328241340816,right,0.14687927055638283,239.39559769048356,S1,K-M,2023-01-25_09h48.50.143,knowing_that_K_ONLY,2022.2.5,60.02129601145046,
Does Anna know that the book is here?,Does Anna think that the book is here?,Is the book here?,early,23,no_5,no_K,0,0,0,no,X-O-X,X-O-O,X-O-X,R,stimuli/blue-R.png,mB-R,m0,stimuli/m0_w0_X-O-X.png,stimuli/m0_wW-R_X-O-X.png,stimuli/m0_none_X-O-X.png,stimuli/mW-R_none_X-O-X.png,stimuli/mB-R_none_X-O-X.png,stimuli/mB-R_none_X-O-O.png,stimuli/mB-R_none_X-O-X.png,stimuli/mW-L_none_X-O-X.png,stimuli/m0_none_X-O-X.png,stimuli/m0_wW-L_X-O-X.png,0,26,26,22,,,,,,,,,246.79939028259832,253.45065222366247,254.18832233728608,254.18832233728608,254.18832233728608,255.09930251102196,255.09930251102196,right,0.4724752736510709,247.85945767682279,S1,K-M,2023-01-25_09h48.50.143,knowing_that_K_ONLY,2022.2.5,60.02129601145046,
Does Anna know that the book is here?,Does Anna think that the book is here?,Is the book here?,early,7,per_7,per_K,1,1,1,switch,B-X-O,O-X-B,X-X-B,R,stimuli/blue-R.png,mB-R,m0,stimuli/m0_w0_B-X-O.png,stimuli/m0_wW-R_B-X-O.png,stimuli/m0_none_B-X-O.png,stimuli/mW-R_none_B-X-O.png,stimuli/mB-R_none_B-X-O.png,stimuli/mB-R_none_O-X-B.png,stimuli/mB-R_none_X-X-B.png,stimuli/mW-L_none_X-X-B.png,stimuli/m0_none_X-X-B.png,stimuli/m0_wW-L_X-X-B.png,0,27,27,6,,,,,,,,,255.59943788970122,262.2508320014458,262.99033261451405,262.99033261451405,262.99033261451405,263.8996882440406,263.8996882440406,left,0.41529670654563233,256.65287750278367,S1,K-M,2023-01-25_09h48.50.143,knowing_that_K_ONLY,2022.2.5,60.02129601145046,
,,,,,,,,,,,,,,,,,,,,,,,,,,,,,,,,,,,,12.116015362611506,12.116015362611506,left,4.613705984083936,,,,,,,,,,,S1,K-M,2023-01-25_09h53.30.582,knowing_that_K_ONLY,2022.2.5,60.0150558241087,
Does Anna know that the book is here?,Does Anna think that the book is here?,Is the book here?,late,17,mem_8,mem_K,1,1,1,switch,O-X-B,B-X-O,X-X-O,L,stimuli/blue-L.png,mB-M,m0,stimuli/m0_w0_O-X-B.png,stimuli/mW-R_w0_O-X-B.png,stimuli/mB-M_w0_O-X-B.png,stimuli/mB-M_w0_B-X-O.png,stimuli/mB-M_w0_X-X-O.png,stimuli/mW-L_w0_X-X-O.png,stimuli/m0_wW-R_X-X-O.png,stimuli/m0_none_X-X-O.png,stimuli/m0_none_X-X-O.png,stimuli/m0_wW-L_X-X-O.png,0,0,0,16,,,,,,,,,16.786188294412568,23.405353617446963,24.164829965040553,24.164829965040553,24.164829965040553,25.05374341312563,25.05374341312563,right,0.6344785921392031,,S1,K-M,2023-01-25_09h53.30.582,knowing_that_K_ONLY,2022.2.5,60.0150558241087,
Does Anna know that the book is here?,Does Anna think that the book is here?,Is the book here?,late,4,per_4,per_K,1,1,1,no,O-X-B,O-O-B,O-X-B,R,stimuli/blue-R.png,mB-M,m0,stimuli/m0_w0_O-X-B.png,stimuli/mW-R_w0_O-X-B.png,stimuli/mB-M_w0_O-X-B.png,stimuli/mB-M_w0_O-O-B.png,stimuli/mB-M_w0_O-X-B.png,stimuli/mW-L_w0_O-X-B.png,stimuli/m0_wW-R_O-X-B.png,stimuli/m0_none_O-X-B.png,stimuli/m0_none_O-X-B.png,stimuli/m0_wW-L_O-X-B.png,0,1,1,3,,,,,,,,,25.72044333635131,32.37137709639501,33.11158090864774,33.11158090864774,33.11158090864774,34.020046952646226,34.020046952646226,left,0.1893172252457589,26.78338351752609,S1,K-M,2023-01-25_09h53.30.582,knowing_that_K_ONLY,2022.2.5,60.0150558241087,
Does Anna know that the book is here?,Does Anna think that the book is here?,Is the book here?,late,5,per_5,per_K,1,1,1,no,X-B-O,O-B-O,X-B-O,M,stimuli/blue-M.png,mB-L,m0,stimuli/m0_w0_X-B-O.png,stimuli/mW-R_w0_X-B-O.png,stimuli/mB-L_w0_X-B-O.png,stimuli/mB-L_w0_O-B-O.png,stimuli/mB-L_w0_X-B-O.png,stimuli/mW-L_w0_X-B-O.png,stimuli/m0_wW-R_X-B-O.png,stimuli/m0_none_X-B-O.png,stimuli/m0_none_X-B-O.png,stimuli/m0_wW-L_X-B-O.png,0,2,2,4,,,,,,,,,34.2369274556404,40.888945528364275,41.62820553948404,41.62820553948404,41.62820553948404,42.53697602514876,42.53697602514876,left,0.14407668431522325,35.28781091381097,S1,K-M,2023-01-25_09h53.30.582,knowing_that_K_ONLY,2022.2.5,60.0150558241087,
Does Anna know that the book is here?,Does Anna think that the book is here?,Is the book here?,late,18,mem_9,mem_K,1,1,1,switch,X-O-B,X-B-O,X-X-O,M,stimuli/blue-M.png,mB-L,m0,stimuli/m0_w0_X-O-B.png,stimuli/mW-R_w0_X-O-B.png,stimuli/mB-L_w0_X-O-B.png,stimuli/mB-L_w0_X-B-O.png,stimuli/mB-L_w0_X-X-O.png,stimuli/mW-L_w0_X-X-O.png,stimuli/m0_wW-R_X-X-O.png,stimuli/m0_none_X-X-O.png,stimuli/m0_none_X-X-O.png,stimuli/m0_wW-L_X-X-O.png,0,3,3,17,,,,,,,,,42.70369744213531,49.35481662605889,50.092477115569636,50.092477115569636,50.092477115569636,51.003226632252336,51.003226632252336,right,0.18937400734284893,43.759867085085716,S1,K-M,2023-01-25_09h53.30.582,knowing_that_K_ONLY,2022.2.5,60.0150558241087,
Does Anna know that the book is here?,Does Anna think that the book is here?,Is the book here?,early,21,no_3,no_K,0,0,0,no,X-X-O,X-O-O,X-X-O,M,stimuli/blue-M.png,mB-M,m0,stimuli/m0_w0_X-X-O.png,stimuli/m0_wW-R_X-X-O.png,stimuli/m0_none_X-X-O.png,stimuli/mW-R_none_X-X-O.png,stimuli/mB-M_none_X-X-O.png,stimuli/mB-M_none_X-O-O.png,stimuli/mB-M_none_X-X-O.png,stimuli/mW-L_none_X-X-O.png,stimuli/m0_none_X-X-O.png,stimuli/m0_wW-L_X-X-O.png,0,4,4,20,,,,,,,,,51.219841189915314,57.891499758465216,58.609140884305816,58.609140884305816,58.609140884305816,59.52000781474635,59.52000781474635,right,0.3524004202336073,52.27415049873525,S1,K-M,2023-01-25_09h53.30.582,knowing_that_K_ONLY,2022.2.5,60.0150558241087,
Does Anna know that the book is here?,Does Anna think that the book is here?,Is the book here?,early,19,no_1,no_K,0,0,0,no,X-X-X,O-X-X,X-X-X,L,stimuli/blue-L.png,mB-L,m0,stimuli/m0_w0_X-X-X.png,stimuli/m0_wW-R_X-X-X.png,stimuli/m0_none_X-X-X.png,stimuli/mW-R_none_X-X-X.png,stimuli/mB-L_none_X-X-X.png,stimuli/mB-L_none_O-X-X.png,stimuli/mB-L_none_X-X-X.png,stimuli/mW-L_none_X-X-X.png,stimuli/m0_none_X-X-X.png,stimuli/m0_wW-L_X-X-X.png,0,5,5,18,,,,,,,,,59.903287007298786,66.57826556166401,67.29264027572935,67.29264027572935,67.29264027572935,68.20372535195202,68.20372535195202,right,0.7571644026320428,60.94214614352677,S1,K-M,2023-01-25_09h53.30.582,knowing_that_K_ONLY,2022.2.5,60.0150558241087,
Does Anna know that the book is here?,Does Anna think that the book is here?,Is the book here?,early,1,per_1,per_K,1,1,1,no,B-X-X,B-O-X,B-X-X,L,stimuli/blue-L.png,mB-M,m0,stimuli/m0_w0_B-X-X.png,stimuli/m0_wW-R_B-X-X.png,stimuli/m0_none_B-X-X.png,stimuli/mW-R_none_B-X-X.png,stimuli/mB-M_none_B-X-X.png,stimuli/mB-M_none_B-O-X.png,stimuli/mB-M_none_B-X-X.png,stimuli/mW-L_none_B-X-X.png,stimuli/m0_none_B-X-X.png,stimuli/m0_wW-L_B-X-X.png,0,6,6,0,,,,,,,,,68.98703027283773,75.66015298431739,76.37769530300284,76.37769530300284,76.37769530300284,77.28697939356789,77.28697939356789,left,0.4905200424254872,70.05234888434643,S1,K-M,2023-01-25_09h53.30.582,knowing_that_K_ONLY,2022.2.5,60.0150558241087,
Does Anna know that the book is here?,Does Anna think that the book is here?,Is the book here?,early,2,per_2,per_K,1,1,1,no,X-X-B,O-X-B,X-X-B,R,stimuli/blue-R.png,mB-L,m0,stimuli/m0_w0_X-X-B.png,stimuli/m0_wW-R_X-X-B.png,stimuli/m0_none_X-X-B.png,stimuli/mW-R_none_X-X-B.png,stimuli/mB-L_none_X-X-B.png,stimuli/mB-L_none_O-X-B.png,stimuli/mB-L_none_X-X-B.png,stimuli/mW-L_none_X-X-B.png,stimuli/m0_none_X-X-B.png,stimuli/m0_wW-L_X-X-B.png,0,7,7,1,,,,,,,,,77.80371277645463,84.45471294265008,85.19408363068942,85.19408363068942,85.19408363068942,86.10365548112895,86.10365548112895,left,0.4652809001272544,78.8581876194803,S1,K-M,2023-01-25_09h53.30.582,knowing_that_K_ONLY,2022.2.5,60.0150558241087,
Does Anna know that the book is here?,Does Anna think that the book is here?,Is the book here?,early,22,no_4,no_K,0,0,0,no,O-X-X,O-O-X,O-X-X,M,stimuli/blue-M.png,mB-M,m0,stimuli/m0_w0_O-X-X.png,stimuli/m0_wW-R_O-X-X.png,stimuli/m0_none_O-X-X.png,stimuli/mW-R_none_O-X-X.png,stimuli/mB-M_none_O-X-X.png,stimuli/mB-M_none_O-O-X.png,stimuli/mB-M_none_O-X-X.png,stimuli/mW-L_none_O-X-X.png,stimuli/m0_none_O-X-X.png,stimuli/m0_wW-L_O-X-X.png,0,8,8,21,,,,,,,,,86.58699844923103,93.23887440643739,93.97700198448729,93.97700198448729,93.97700198448729,94.88685389561579,94.88685389561579,right,0.44218856864608824,87.63972074777121,S1,K-M,2023-01-25_09h53.30.582,knowing_that_K_ONLY,2022.2.5,60.0150558241087,
Does Anna know that the book is here?,Does Anna think that the book is here?,Is the book here?,late,10,mem_1,mem_K,1,1,1,no,O-X-B,X-X-B,X-X-X,R,stimuli/blue-R.png,mB-M,m0,stimuli/m0_w0_O-X-B.png,stimuli/mW-R_w0_O-X-B.png,stimuli/mB-M_w0_O-X-B.png,stimuli/mB-M_w0_X-X-B.png,stimuli/mB-M_w0_X-X-X.png,stimuli/mW-L_w0_X-X-X.png,stimuli/m0_wW-R_X-X-X.png,stimuli/m0_none_X-X-X.png,stimuli/m0_none_X-X-X.png,stimuli/m0_wW-L_X-X-X.png,0,9,9,9,,,,,,,,,95.35386127600214,102.00448353675893,102.76616347715026,102.76616347715026,102.76616347715026,103.65352744882694,103.65352744882694,right,0.4112006443319842,96.40923597017536,S1,K-M,2023-01-25_09h53.30.582,knowing_that_K_ONLY,2022.2.5,60.0150558241087,
Does Anna know that the book is here?,Does Anna think that the book is here?,Is the book here?,early,9,per_9,per_K,1,1,1,switch,X-O-B,X-B-O,X-B-X,M,stimuli/blue-M.png,mB-R,m0,stimuli/m0_w0_X-O-B.png,stimuli/m0_wW-R_X-O-B.png,stimuli/m0_none_X-O-B.png,stimuli/mW-R_none_X-O-B.png,stimuli/mB-R_none_X-O-B.png,stimuli/mB-R_none_X-B-O.png,stimuli/mB-R_none_X-B-X.png,stimuli/mW-L_none_X-B-X.png,stimuli/m0_none_X-B-X.png,stimuli/m0_wW-L_X-B-X.png,0,10,10,8,,,,,,,,,104.08686274976935,110.7384390773368,111.47754189523403,111.47754189523403,111.47754189523403,112.38684587553144,112.38684587553144,left,0.4228531561093405,105.14887516992167,S1,K-M,2023-01-25_09h53.30.582,knowing_that_K_ONLY,2022.2.5,60.0150558241087,
Does Anna know that the book is here?,Does Anna think that the book is here?,Is the book here?,late,11,mem_2,mem_K,1,1,1,no,O-B-O,O-B-X,O-X-X,M,stimuli/blue-M.png,mB-L,m0,stimuli/m0_w0_O-B-O.png,stimuli/mW-R_w0_O-B-O.png,stimuli/mB-L_w0_O-B-O.png,stimuli/mB-L_w0_O-B-X.png,stimuli/mB-L_w0_O-X-X.png,stimuli/mW-L_w0_O-X-X.png,stimuli/m0_wW-R_O-X-X.png,stimuli/m0_none_O-X-X.png,stimuli/m0_none_O-X-X.png,stimuli/m0_wW-L_O-X-X.png,0,11,11,10,,,,,,,,,112.83692835387774,119.48799973825226,120.22710383927915,120.22710383927915,120.22710383927915,121.13709080830449,121.13709080830449,right,0.3753054030239582,113.87586159550119,S1,K-M,2023-01-25_09h53.30.582,knowing_that_K_ONLY,2022.2.5,60.0150558241087,
Does Anna know that the book is here?,Does Anna think that the book is here?,Is the book here?,early,23,no_5,no_K,0,0,0,no,X-O-X,X-O-O,X-O-X,R,stimuli/blue-R.png,mB-R,m0,stimuli/m0_w0_X-O-X.png,stimuli/m0_wW-R_X-O-X.png,stimuli/m0_none_X-O-X.png,stimuli/mW-R_none_X-O-X.png,stimuli/mB-R_none_X-O-X.png,stimuli/mB-R_none_X-O-O.png,stimuli/mB-R_none_X-O-X.png,stimuli/mW-L_none_X-O-X.png,stimuli/m0_none_X-O-X.png,stimuli/m0_wW-L_X-O-X.png,0,12,12,22,,,,,,,,,121.53699944372056,128.187584170606,128.9464631837327,128.9464631837327,128.9464631837327,129.83718146709725,129.83718146709725,right,0.4926042967126705,122.59244920575293,S1,K-M,2023-01-25_09h53.30.582,knowing_that_K_ONLY,2022.2.5,60.0150558241087,
Does Anna know that the book is here?,Does Anna think that the book is here?,Is the book here?,early,3,per_3,per_K,1,1,1,no,O-B-X,O-B-O,O-B-X,M,stimuli/blue-M.png,mB-R,m0,stimuli/m0_w0_O-B-X.png,stimuli/m0_wW-R_O-B-X.png,stimuli/m0_none_O-B-X.png,stimuli/mW-R_none_O-B-X.png,stimuli/mB-R_none_O-B-X.png,stimuli/mB-R_none_O-B-O.png,stimuli/mB-R_none_O-B-X.png,stimuli/mW-L_none_O-B-X.png,stimuli/m0_none_O-B-X.png,stimuli/m0_wW-L_O-B-X.png,0,13,13,2,,,,,,,,,130.35380064428318,137.00529356324114,137.74201827164507,137.74201827164507,137.74201827164507,138.6537330832798,138.6537330832798,left,0.09184264729265124,131.4088769921218,S1,K-M,2023-01-25_09h53.30.582,knowing_that_K_ONLY,2022.2.5,60.0150558241087,
Does Anna know that the book is here?,Does Anna think that the book is here?,Is the book here?,late,12,mem_3,mem_K,1,1,1,no,X-O-B,X-O-B,X-O-X,R,stimuli/blue-R.png,mB-M,m0,stimuli/m0_w0_X-O-B.png,stimuli/mW-R_w0_X-O-B.png,stimuli/mB-M_w0_X-O-B.png,stimuli/mB-M_w0_X-O-B.png,stimuli/mB-M_w0_X-O-X.png,stimuli/mW-L_w0_X-O-X.png,stimuli/m0_wW-R_X-O-X.png,stimuli/m0_none_X-O-X.png,stimuli/m0_none_X-O-X.png,stimuli/m0_wW-L_X-O-X.png,0,14,14,11,,,,,,,,,138.77073715941515,145.42071653180756,146.1805637271027,146.1805637271027,146.1805637271027,147.0701893569203,147.0701893569203,right,0.2989790929714218,139.82861315121409,S1,K-M,2023-01-25_09h53.30.582,knowing_that_K_ONLY,2022.2.5,60.0150558241087,
Does Anna know that the book is here?,Does Anna think that the book is here?,Is the book here?,late,6,per_6,per_K,1,1,1,no,X-B-X,O-B-X,X-B-X,M,stimuli/blue-M.png,mB-L,m0,stimuli/m0_w0_X-B-X.png,stimuli/mW-R_w0_X-B-X.png,stimuli/mB-L_w0_X-B-X.png,stimuli/mB-L_w0_O-B-X.png,stimuli/mB-L_w0_X-B-X.png,stimuli/mW-L_w0_X-B-X.png,stimuli/m0_wW-R_X-B-X.png,stimuli/m0_none_X-B-X.png,stimuli/m0_none_X-B-X.png,stimuli/m0_wW-L_X-B-X.png,0,15,15,5,,,,,,,,,147.38687795581063,154.0386708251317,154.77792923222296,154.77792923222296,154.77792923222296,155.6871722600772,155.6871722600772,left,0.12130579701624811,148.4448655869346,S1,K-M,2023-01-25_09h53.30.582,knowing_that_K_ONLY,2022.2.5,60.0150558241087,
Does Anna know that the book is here?,Does Anna think that the book is here?,Is the book here?,early,26,no_8,no_K,0,0,0,hide,X-B-O,O-B-O,X-O-X,R,stimuli/blue-R.png,mB-L,m0,stimuli/m0_w0_X-B-O.png,stimuli/m0_wW-R_X-B-O.png,stimuli/m0_none_X-B-O.png,stimuli/mW-R_none_X-B-O.png,stimuli/mB-L_none_X-B-O.png,stimuli/mB-L_none_O-B-O.png,stimuli/mB-L_none_X-O-X.png,stimuli/mW-L_none_X-O-X.png,stimuli/m0_none_X-O-X.png,stimuli/m0_wW-L_X-O-X.png,0,16,16,25,,,,,,,,,155.83694503561128,162.4869333904935,163.22699220001232,163.22699220001232,163.22699220001232,164.13710235717008,164.13710235717008,right,0.3192987277870998,156.89984094607644,S1,K-M,2023-01-25_09h53.30.582,knowing_that_K_ONLY,2022.2.5,60.0150558241087,
Does Anna know that the book is here?,Does Anna think that the book is here?,Is the book here?,early,20,no_2,no_K,0,0,0,no,X-O-X,O-O-X,X-O-X,L,stimuli/blue-L.png,mB-L,m0,stimuli/m0_w0_X-O-X.png,stimuli/m0_wW-R_X-O-X.png,stimuli/m0_none_X-O-X.png,stimuli/mW-R_none_X-O-X.png,stimuli/mB-L_none_X-O-X.png,stimuli/mB-L_none_O-O-X.png,stimuli/mB-L_none_X-O-X.png,stimuli/mW-L_none_X-O-X.png,stimuli/m0_none_X-O-X.png,stimuli/m0_wW-L_X-O-X.png,0,17,17,19,,,,,,,,,164.4871396665112,171.1368248629733,171.87642524560215,171.87642524560215,171.87642524560215,172.78715840139193,172.78715840139193,right,0.381916823273059,165.54334940982517,S1,K-M,2023-01-25_09h53.30.582,knowing_that_K_ONLY,2022.2.5,60.0150558241087,
Does Anna know that the book is here?,Does Anna think that the book is here?,Is the book here?,early,8,per_8,per_K,1,1,1,switch,O-X-B,B-X-O,B-X-X,L,stimuli/blue-L.png,mB-L,m0,stimuli/m0_w0_O-X-B.png,stimuli/m0_wW-R_O-X-B.png,stimuli/m0_none_O-X-B.png,stimuli/mW-R_none_O-X-B.png,stimuli/mB-L_none_O-X-B.png,stimuli/mB-L_none_B-X-O.png,stimuli/mB-L_none_B-X-X.png,stimuli/mW-L_none_B-X-X.png,stimuli/m0_none_B-X-X.png,stimuli/m0_wW-L_B-X-X.png,0,18,18,7,,,,,,,,,173.18721364362864,179.84005714138038,180.60245856677648,180.60245856677648,180.60245856677648,181.4872140927473,181.4872140927473,right,0.05025412276154384,174.240037957381,S1,K-M,2023-01-25_09h53.30.582,knowing_that_K_ONLY,2022.2.5,60.0150558241087,
Does Anna know that the book is here?,Does Anna think that the book is here?,Is the book here?,late,13,mem_4,mem_K,1,1,1,no,B-X-O,B-X-O,X-X-O,L,stimuli/blue-L.png,mB-M,m0,stimuli/m0_w0_B-X-O.png,stimuli/mW-R_w0_B-X-O.png,stimuli/mB-M_w0_B-X-O.png,stimuli/mB-M_w0_B-X-O.png,stimuli/mB-M_w0_X-X-O.png,stimuli/mW-L_w0_X-X-O.png,stimuli/m0_wW-R_X-X-O.png,stimuli/m0_none_X-X-O.png,stimuli/m0_none_X-X-O.png,stimuli/m0_wW-L_X-X-O.png,0,19,19,12,,,,,,,,,181.55394391471054,188.20560846303124,188.94471224333392,188.94471224333392,188.94471224333392,189.85375188232865,189.85375188232865,right,0.7472015579696745,182.60935806762427,S1,K-M,2023-01-25_09h53.30.582,knowing_that_K_ONLY,2022.2.5,60.0150558241087,
Does Anna know that the book is here?,Does Anna think that the book is here?,Is the book here?,early,25,no_7,no_K,0,0,0,hide,B-X-X,B-O-O,O-X-X,M,stimuli/blue-M.png,mB-L,m0,stimuli/m0_w0_B-X-X.png,stimuli/m0_wW-R_B-X-X.png,stimuli/m0_none_B-X-X.png,stimuli/mW-R_none_B-X-X.png,stimuli/mB-L_none_B-X-X.png,stimuli/mB-L_none_B-O-O.png,stimuli/mB-L_none_O-X-X.png,stimuli/mW-L_none_O-X-X.png,stimuli/m0_none_O-X-X.png,stimuli/m0_wW-L_O-X-X.png,0,20,20,24,,,,,,,,,190.62056466384092,197.2715478275204,198.00889521371573,198.00889521371573,198.00889521371573,198.92065044643823,198.92065044643823,right,0.5759398222435266,191.68186265672557,S1,K-M,2023-01-25_09h53.30.582,knowing_that_K_ONLY,2022.2.5,60.0150558241087,
Does Anna know that the book is here?,Does Anna think that the book is here?,Is the book here?,early,7,per_7,per_K,1,1,1,switch,B-X-O,O-X-B,X-X-B,R,stimuli/blue-R.png,mB-R,m0,stimuli/m0_w0_B-X-O.png,stimuli/m0_wW-R_B-X-O.png,stimuli/m0_none_B-X-O.png,stimuli/mW-R_none_B-X-O.png,stimuli/mB-R_none_B-X-O.png,stimuli/mB-R_none_O-X-B.png,stimuli/mB-R_none_X-X-B.png,stimuli/mW-L_none_X-X-B.png,stimuli/m0_none_X-X-B.png,stimuli/m0_wW-L_X-X-B.png,0,21,21,6,,,,,,,,,199.52051468280843,206.17352563951863,206.9098448534496,206.9098448534496,206.9098448534496,207.8203367657261,207.8203367657261,left,0.3008051011711359,200.58233462146018,S1,K-M,2023-01-25_09h53.30.582,knowing_that_K_ONLY,2022.2.5,60.0150558241087,
Does Anna know that the book is here?,Does Anna think that the book is here?,Is the book here?,early,24,no_6,no_K,0,0,0,no,X-X-X,X-X-O,X-X-X,R,stimuli/blue-R.png,mB-R,m0,stimuli/m0_w0_X-X-X.png,stimuli/m0_wW-R_X-X-X.png,stimuli/m0_none_X-X-X.png,stimuli/mW-R_none_X-X-X.png,stimuli/mB-R_none_X-X-X.png,stimuli/mB-R_none_X-X-O.png,stimuli/mB-R_none_X-X-X.png,stimuli/mW-L_none_X-X-X.png,stimuli/m0_none_X-X-X.png,stimuli/m0_wW-L_X-X-X.png,0,22,22,23,,,,,,,,,208.15342382958625,214.80421483248938,215.54342479840852,215.54342479840852,215.54342479840852,216.45369664009195,216.45369664009195,right,0.6994879499543458,209.20140659093158,S1,K-M,2023-01-25_09h53.30.582,knowing_that_K_ONLY,2022.2.5,60.0150558241087,
Does Anna know that the book is here?,Does Anna think that the book is here?,Is the book here?,late,14,mem_5,mem_K,1,1,1,no,O-B-X,O-B-X,O-X-X,M,stimuli/blue-M.png,mB-L,m0,stimuli/m0_w0_O-B-X.png,stimuli/mW-R_w0_O-B-X.png,stimuli/mB-L_w0_O-B-X.png,stimuli/mB-L_w0_O-B-X.png,stimuli/mB-L_w0_O-X-X.png,stimuli/mW-L_w0_O-X-X.png,stimuli/m0_wW-R_O-X-X.png,stimuli/m0_none_O-X-X.png,stimuli/m0_none_O-X-X.png,stimuli/m0_wW-L_O-X-X.png,0,23,23,13,,,,,,,,,217.17041866661748,223.82013722648844,224.56126142136054,224.56126142136054,224.56126142136054,225.47015798243228,225.47015798243228,right,0.7143927582656033,218.21780794323422,S1,K-M,2023-01-25_09h53.30.582,knowing_that_K_ONLY,2022.2.5,60.0150558241087,
Does Anna know that the book is here?,Does Anna think that the book is here?,Is the book here?,early,27,no_9,no_K,0,0,0,hide,X-X-B,O-O-B,X-X-O,L,stimuli/blue-L.png,mB-M,m0,stimuli/m0_w0_X-X-B.png,stimuli/m0_wW-R_X-X-B.png,stimuli/m0_none_X-X-B.png,stimuli/mW-R_none_X-X-B.png,stimuli/mB-M_none_X-X-B.png,stimuli/mB-M_none_O-O-B.png,stimuli/mB-M_none_X-X-O.png,stimuli/mW-L_none_X-X-O.png,stimuli/m0_none_X-X-O.png,stimuli/m0_wW-L_X-X-O.png,0,24,24,26,,,,,,,,,226.20336156181293,232.85639722034102,233.614706808934,233.614706808934,233.614706808934,234.50354679324664,234.50354679324664,right,0.32161941356025636,227.25915714900475,S1,K-M,2023-01-25_09h53.30.582,knowing_that_K_ONLY,2022.2.5,60.0150558241087,
Does Anna know that the book is here?,Does Anna think that the book is here?,Is the book here?,early,28,no_10,no_K,0,0,0,hide,O-B-O,O-B-O,X-O-X,L,stimuli/blue-L.png,mB-M,m0,stimuli/m0_w0_O-B-O.png,stimuli/m0_wW-R_O-B-O.png,stimuli/m0_none_O-B-O.png,stimuli/mW-R_none_O-B-O.png,stimuli/mB-M_none_O-B-O.png,stimuli/mB-M_none_O-B-O.png,stimuli/mB-M_none_X-O-X.png,stimuli/mW-L_none_X-O-X.png,stimuli/m0_none_X-O-X.png,stimuli/m0_wW-L_X-O-X.png,0,25,25,27,,,,,,,,,234.85383785743034,241.50513187871547,242.2452933450695,242.2452933450695,242.2452933450695,243.15372538403608,243.15372538403608,right,0.3838204657076858,235.91154703189386,S1,K-M,2023-01-25_09h53.30.582,knowing_that_K_ONLY,2022.2.5,60.0150558241087,
Does Anna know that the book is here?,Does Anna think that the book is here?,Is the book here?,late,16,mem_7,mem_K,1,1,1,switch,B-X-O,O-X-B,O-X-X,R,stimuli/blue-R.png,mB-M,m0,stimuli/m0_w0_B-X-O.png,stimuli/mW-R_w0_B-X-O.png,stimuli/mB-M_w0_B-X-O.png,stimuli/mB-M_w0_O-X-B.png,stimuli/mB-M_w0_O-X-X.png,stimuli/mW-L_w0_O-X-X.png,stimuli/m0_wW-R_O-X-X.png,stimuli/m0_none_O-X-X.png,stimuli/m0_none_O-X-X.png,stimuli/m0_wW-L_O-X-X.png,0,26,26,15,,,,,,,,,243.55398337345105,250.2041475281003,250.943959319673,250.943959319673,250.943959319673,251.8539498174796,251.8539498174796,right,0.7476962355431169,244.59256822348107,S1,K-M,2023-01-25_09h53.30.582,knowing_that_K_ONLY,2022.2.5,60.0150558241087,
Does Anna know that the book is here?,Does Anna think that the book is here?,Is the book here?,late,15,mem_6,mem_K,1,1,1,no,X-B-O,X-B-X,X-X-X,M,stimuli/blue-M.png,mB-R,m0,stimuli/m0_w0_X-B-O.png,stimuli/mW-R_w0_X-B-O.png,stimuli/mB-R_w0_X-B-O.png,stimuli/mB-R_w0_X-B-X.png,stimuli/mB-R_w0_X-X-X.png,stimuli/mW-L_w0_X-X-X.png,stimuli/m0_wW-R_X-X-X.png,stimuli/m0_none_X-X-X.png,stimuli/m0_none_X-X-X.png,stimuli/m0_wW-L_X-X-X.png,0,27,27,14,,,,,,,,,252.62043217237806,259.2718824245967,260.0095964880893,260.0095964880893,260.0095964880893,260.92045796493767,260.92045796493767,right,1.00046331807971,253.67644911335083,S1,K-M,2023-01-25_09h53.30.582,knowing_that_K_ONLY,2022.2.5,60.0150558241087,
