K_text,B_text,T_text,Anna_exit,trial_num,trial_code,cond,K_hit,B_hit,T_hit,book_move,start_shelf,mid_shelf,end_shelf,rectangle,rectangle_path,Todd_mid,Todd_final,frame_1,frame_2,frame_3,frame_4,frame_5,frame_6,frame_7,frame_8,frame_9,frame_10,trials.thisRepN,trials.thisTrialN,trials.thisN,trials.thisIndex,frames.thisRepN,frames.thisTrialN,frames.thisN,frames.thisIndex,sessionInst.started,startSession.started,startSession.keys,startSession.rt,crossText.started,movingImage.started,staticImage.started,promptText3.started,rectImage.started,respText.started,keyResp.started,keyResp.keys,keyResp.rt,crossText.stopped,respText.stopped,keyResp.stopped,subject,session,date,expName,psychopyVersion,frameRate,
,,,,,,,,,,,,,,,,,,,,,,,,,,,,,,,,,,,,23.265385851671454,23.265385851671454,left,7.3024940331233665,,,,,,,,,,,,,S1,T-M,2023-01-25_09h29.24.923,knowing_that_K_ONLY,2022.2.5,59.74359858080901,
Does Anna know that the book is here?,Does Anna think that the book is here?,Is the book here?,late,13,mem_4,mem_K,1,1,1,no,B-X-O,B-X-O,X-X-O,L,stimuli/blue-L.png,mB-M,m0,stimuli/m0_w0_B-X-O.png,stimuli/mW-R_w0_B-X-O.png,stimuli/mB-M_w0_B-X-O.png,stimuli/mB-M_w0_B-X-O.png,stimuli/mB-M_w0_X-X-O.png,stimuli/mW-L_w0_X-X-O.png,stimuli/m0_wW-R_X-X-O.png,stimuli/m0_none_X-X-O.png,stimuli/m0_none_X-X-O.png,stimuli/m0_wW-L_X-X-O.png,0,0,0,12,,,,,,,,,30.63098753936356,37.24525356554659,38.02788736746879,38.02788736746879,38.02788736746879,38.893568293366116,38.893568293366116,left,1.354327387700323,,,,S1,T-M,2023-01-25_09h29.24.923,knowing_that_K_ONLY,2022.2.5,59.74359858080901,
Does Anna know that the book is here?,Does Anna think that the book is here?,Is the book here?,early,8,per_8,per_K,1,1,1,switch,O-X-B,B-X-O,B-X-X,L,stimuli/blue-L.png,mB-L,m0,stimuli/m0_w0_O-X-B.png,stimuli/m0_wW-R_O-X-B.png,stimuli/m0_none_O-X-B.png,stimuli/mW-R_none_O-X-B.png,stimuli/mB-L_none_O-X-B.png,stimuli/mB-L_none_B-X-O.png,stimuli/mB-L_none_B-X-X.png,stimuli/mW-L_none_B-X-X.png,stimuli/m0_none_B-X-X.png,stimuli/m0_wW-L_B-X-X.png,0,1,1,7,,,,,,,,,40.27707429334987,46.95188089751173,47.69082876777975,47.69082876777975,47.69082876777975,48.57724925910588,48.57724925910588,left,0.31180211971513927,41.33752889628522,,,S1,T-M,2023-01-25_09h29.24.923,knowing_that_K_ONLY,2022.2.5,59.74359858080901,
Does Anna know that the book is here?,Does Anna think that the book is here?,Is the book here?,early,28,no_10,no_K,0,0,0,hide,O-B-O,O-B-O,X-O-X,L,stimuli/blue-L.png,mB-M,m0,stimuli/m0_w0_O-B-O.png,stimuli/m0_wW-R_O-B-O.png,stimuli/m0_none_O-B-O.png,stimuli/mW-R_none_O-B-O.png,stimuli/mB-M_none_O-B-O.png,stimuli/mB-M_none_O-B-O.png,stimuli/mB-M_none_X-O-X.png,stimuli/mW-L_none_X-O-X.png,stimuli/m0_none_X-O-X.png,stimuli/m0_wW-L_X-O-X.png,0,2,2,27,,,,,,,,,48.91046817280585,55.563002737704664,56.30015571753029,56.30015571753029,56.30015571753029,57.210505193448626,57.210505193448626,right,0.7423814057256095,49.97609603800811,,,S1,T-M,2023-01-25_09h29.24.923,knowing_that_K_ONLY,2022.2.5,59.74359858080901,
Does Anna know that the book is here?,Does Anna think that the book is here?,Is the book here?,early,7,per_7,per_K,1,1,1,switch,B-X-O,O-X-B,X-X-B,R,stimuli/blue-R.png,mB-R,m0,stimuli/m0_w0_B-X-O.png,stimuli/m0_wW-R_B-X-O.png,stimuli/m0_none_B-X-O.png,stimuli/mW-R_none_B-X-O.png,stimuli/mB-R_none_B-X-O.png,stimuli/mB-R_none_O-X-B.png,stimuli/mB-R_none_X-X-B.png,stimuli/mW-L_none_X-X-B.png,stimuli/m0_none_X-X-B.png,stimuli/m0_wW-L_X-X-B.png,0,3,3,6,,,,,,,,,57.97707801469369,64.63083387492225,65.38942192017566,65.38942192017566,65.38942192017566,66.27723084500758,66.27723084500758,left,0.5862939524231479,59.043250923394226,,,S1,T-M,2023-01-25_09h29.24.923,knowing_that_K_ONLY,2022.2.5,59.74359858080901,
Does Anna know that the book is here?,Does Anna think that the book is here?,Is the book here?,late,5,per_5,per_K,1,1,1,no,X-B-O,O-B-O,X-B-O,M,stimuli/blue-M.png,mB-L,m0,stimuli/m0_w0_X-B-O.png,stimuli/mW-R_w0_X-B-O.png,stimuli/mB-L_w0_X-B-O.png,stimuli/mB-L_w0_O-B-O.png,stimuli/mB-L_w0_X-B-O.png,stimuli/mW-L_w0_X-B-O.png,stimuli/m0_wW-R_X-B-O.png,stimuli/m0_none_X-B-O.png,stimuli/m0_none_X-B-O.png,stimuli/m0_wW-L_X-B-O.png,0,4,4,4,,,,,,,,,66.89385059964843,73.54578301811125,74.3070362911094,74.3070362911094,74.3070362911094,75.19372593576554,75.19372593576554,left,0.759017264645081,67.96224763261853,,,S1,T-M,2023-01-25_09h29.24.923,knowing_that_K_ONLY,2022.2.5,59.74359858080901,
Does Anna know that the book is here?,Does Anna think that the book is here?,Is the book here?,early,24,no_6,no_K,0,0,0,no,X-X-X,X-X-O,X-X-X,R,stimuli/blue-R.png,mB-R,m0,stimuli/m0_w0_X-X-X.png,stimuli/m0_wW-R_X-X-X.png,stimuli/m0_none_X-X-X.png,stimuli/mW-R_none_X-X-X.png,stimuli/mB-R_none_X-X-X.png,stimuli/mB-R_none_X-X-O.png,stimuli/mB-R_none_X-X-X.png,stimuli/mW-L_none_X-X-X.png,stimuli/m0_none_X-X-X.png,stimuli/m0_wW-L_X-X-X.png,0,5,5,23,,,,,,,,,75.97704721760238,82.65367565961787,83.36809881485533,83.36809881485533,83.36809881485533,84.2771727797226,84.2771727797226,right,1.234698825806845,77.03890308615519,,,S1,T-M,2023-01-25_09h29.24.923,knowing_that_K_ONLY,2022.2.5,59.74359858080901,
Does Anna know that the book is here?,Does Anna think that the book is here?,Is the book here?,early,25,no_7,no_K,0,0,0,hide,B-X-X,B-O-O,O-X-X,M,stimuli/blue-M.png,mB-L,m0,stimuli/m0_w0_B-X-X.png,stimuli/m0_wW-R_B-X-X.png,stimuli/m0_none_B-X-X.png,stimuli/mW-R_none_B-X-X.png,stimuli/mB-L_none_B-X-X.png,stimuli/mB-L_none_B-O-O.png,stimuli/mB-L_none_O-X-X.png,stimuli/mW-L_none_O-X-X.png,stimuli/m0_none_O-X-X.png,stimuli/m0_wW-L_O-X-X.png,0,6,6,24,,,,,,,,,85.54397882445483,92.2197795957909,92.9555582574103,92.9555582574103,92.9555582574103,93.84385704778833,93.84385704778833,right,0.6926323054358363,86.6058824925567,,,S1,T-M,2023-01-25_09h29.24.923,knowing_that_K_ONLY,2022.2.5,59.74359858080901,
Does Anna know that the book is here?,Does Anna think that the book is here?,Is the book here?,late,10,mem_1,mem_K,1,1,1,no,O-X-B,X-X-B,X-X-X,R,stimuli/blue-R.png,mB-M,m0,stimuli/m0_w0_O-X-B.png,stimuli/mW-R_w0_O-X-B.png,stimuli/mB-M_w0_O-X-B.png,stimuli/mB-M_w0_X-X-B.png,stimuli/mB-M_w0_X-X-X.png,stimuli/mW-L_w0_X-X-X.png,stimuli/m0_wW-R_X-X-X.png,stimuli/m0_none_X-X-X.png,stimuli/m0_none_X-X-X.png,stimuli/m0_wW-L_X-X-X.png,0,7,7,9,,,,,,,,,94.56079497438623,101.23644528933801,101.97365505126072,101.97365505126072,101.97365505126072,102.8607617392554,102.8607617392554,left,1.3789817069191486,95.61545941169607,,,S1,T-M,2023-01-25_09h29.24.923,knowing_that_K_ONLY,2022.2.5,59.74359858080901,
Does Anna know that the book is here?,Does Anna think that the book is here?,Is the book here?,late,14,mem_5,mem_K,1,1,1,no,O-B-X,O-B-X,O-X-X,M,stimuli/blue-M.png,mB-L,m0,stimuli/m0_w0_O-B-X.png,stimuli/mW-R_w0_O-B-X.png,stimuli/mB-L_w0_O-B-X.png,stimuli/mB-L_w0_O-B-X.png,stimuli/mB-L_w0_O-X-X.png,stimuli/mW-L_w0_O-X-X.png,stimuli/m0_wW-R_O-X-X.png,stimuli/m0_none_O-X-X.png,stimuli/m0_none_O-X-X.png,stimuli/m0_wW-L_O-X-X.png,0,8,8,13,,,,,,,,,104.26075602899073,110.93466598994564,111.67521274019964,111.67521274019964,111.67521274019964,112.56075327005237,112.56075327005237,left,0.39201848179800436,105.32383575930726,,,S1,T-M,2023-01-25_09h29.24.923,knowing_that_K_ONLY,2022.2.5,59.74359858080901,
Does Anna know that the book is here?,Does Anna think that the book is here?,Is the book here?,early,23,no_5,no_K,0,0,0,no,X-O-X,X-O-O,X-O-X,R,stimuli/blue-R.png,mB-R,m0,stimuli/m0_w0_X-O-X.png,stimuli/m0_wW-R_X-O-X.png,stimuli/m0_none_X-O-X.png,stimuli/mW-R_none_X-O-X.png,stimuli/mB-R_none_X-O-X.png,stimuli/mB-R_none_X-O-O.png,stimuli/mB-R_none_X-O-X.png,stimuli/mW-L_none_X-O-X.png,stimuli/m0_none_X-O-X.png,stimuli/m0_wW-L_X-O-X.png,0,9,9,22,,,,,,,,,112.9771806714707,119.63086403039051,120.36837149702478,120.36837149702478,120.36837149702478,121.27710059919627,121.27710059919627,right,0.7559167077997699,114.03630458534462,,,S1,T-M,2023-01-25_09h29.24.923,knowing_that_K_ONLY,2022.2.5,59.74359858080901,
Does Anna know that the book is here?,Does Anna think that the book is here?,Is the book here?,early,21,no_3,no_K,0,0,0,no,X-X-O,X-O-O,X-X-O,M,stimuli/blue-M.png,mB-M,m0,stimuli/m0_w0_X-X-O.png,stimuli/m0_wW-R_X-X-O.png,stimuli/m0_none_X-X-O.png,stimuli/mW-R_none_X-X-O.png,stimuli/mB-M_none_X-X-O.png,stimuli/mB-M_none_X-O-O.png,stimuli/mB-M_none_X-X-O.png,stimuli/mW-L_none_X-X-O.png,stimuli/m0_none_X-X-O.png,stimuli/m0_wW-L_X-X-O.png,0,10,10,20,,,,,,,,,122.06047802144894,128.7370034857886,129.47163784469012,129.47163784469012,129.47163784469012,130.36056123767048,130.36056123767048,right,0.4559637374477461,123.12384487013333,,,S1,T-M,2023-01-25_09h29.24.923,knowing_that_K_ONLY,2022.2.5,59.74359858080901,
Does Anna know that the book is here?,Does Anna think that the book is here?,Is the book here?,early,27,no_9,no_K,0,0,0,hide,X-X-B,O-O-B,X-X-O,L,stimuli/blue-L.png,mB-M,m0,stimuli/m0_w0_X-X-B.png,stimuli/m0_wW-R_X-X-B.png,stimuli/m0_none_X-X-B.png,stimuli/mW-R_none_X-X-B.png,stimuli/mB-M_none_X-X-B.png,stimuli/mB-M_none_O-O-B.png,stimuli/mB-M_none_X-X-O.png,stimuli/mW-L_none_X-X-O.png,stimuli/m0_none_X-X-O.png,stimuli/m0_wW-L_X-X-O.png,0,11,11,26,,,,,,,,,130.84392473712796,137.49518186616478,138.257997447683,138.257997447683,138.257997447683,139.14405414887005,139.14405414887005,right,0.7287389556295238,131.90604077652097,,,S1,T-M,2023-01-25_09h29.24.923,knowing_that_K_ONLY,2022.2.5,59.74359858080901,
Does Anna know that the book is here?,Does Anna think that the book is here?,Is the book here?,early,20,no_2,no_K,0,0,0,no,X-O-X,O-O-X,X-O-X,L,stimuli/blue-L.png,mB-L,m0,stimuli/m0_w0_X-O-X.png,stimuli/m0_wW-R_X-O-X.png,stimuli/m0_none_X-O-X.png,stimuli/mW-R_none_X-O-X.png,stimuli/mB-L_none_X-O-X.png,stimuli/mB-L_none_O-O-X.png,stimuli/mB-L_none_X-O-X.png,stimuli/mW-L_none_X-O-X.png,stimuli/m0_none_X-O-X.png,stimuli/m0_wW-L_X-O-X.png,0,12,12,19,,,,,,,,,139.89399720641086,146.54532555362675,147.3076326630544,147.3076326630544,147.3076326630544,148.1940967835253,148.1940967835253,right,0.5744951546075754,140.9595679687336,,,S1,T-M,2023-01-25_09h29.24.923,knowing_that_K_ONLY,2022.2.5,59.74359858080901,
Does Anna know that the book is here?,Does Anna think that the book is here?,Is the book here?,early,26,no_8,no_K,0,0,0,hide,X-B-O,O-B-O,X-O-X,R,stimuli/blue-R.png,mB-L,m0,stimuli/m0_w0_X-B-O.png,stimuli/m0_wW-R_X-B-O.png,stimuli/m0_none_X-B-O.png,stimuli/mW-R_none_X-B-O.png,stimuli/mB-L_none_X-B-O.png,stimuli/mB-L_none_O-B-O.png,stimuli/mB-L_none_X-O-X.png,stimuli/mW-L_none_X-O-X.png,stimuli/m0_none_X-O-X.png,stimuli/m0_wW-L_X-O-X.png,0,13,13,25,,,,,,,,,148.79391803237377,155.46905570477247,156.20853097439976,156.20853097439976,156.20853097439976,157.09406027622754,157.09406027622754,right,0.33157831500284374,149.85866016161162,,,S1,T-M,2023-01-25_09h29.24.923,knowing_that_K_ONLY,2022.2.5,59.74359858080901,
Does Anna know that the book is here?,Does Anna think that the book is here?,Is the book here?,early,3,per_3,per_K,1,1,1,no,O-B-X,O-B-O,O-B-X,M,stimuli/blue-M.png,mB-R,m0,stimuli/m0_w0_O-B-X.png,stimuli/m0_wW-R_O-B-X.png,stimuli/m0_none_O-B-X.png,stimuli/mW-R_none_O-B-X.png,stimuli/mB-R_none_O-B-X.png,stimuli/mB-R_none_O-B-O.png,stimuli/mB-R_none_O-B-X.png,stimuli/mW-L_none_O-B-X.png,stimuli/m0_none_O-B-X.png,stimuli/m0_wW-L_O-B-X.png,0,14,14,2,,,,,,,,,157.44397632218897,164.10046894918196,164.83594894362614,164.83594894362614,164.83594894362614,165.74396425997838,165.74396425997838,left,0.09684162016492337,158.50166592770256,,,S1,T-M,2023-01-25_09h29.24.923,knowing_that_K_ONLY,2022.2.5,59.74359858080901,
Does Anna know that the book is here?,Does Anna think that the book is here?,Is the book here?,early,22,no_4,no_K,0,0,0,no,O-X-X,O-O-X,O-X-X,M,stimuli/blue-M.png,mB-M,m0,stimuli/m0_w0_O-X-X.png,stimuli/m0_wW-R_O-X-X.png,stimuli/m0_none_O-X-X.png,stimuli/mW-R_none_O-X-X.png,stimuli/mB-M_none_O-X-X.png,stimuli/mB-M_none_O-O-X.png,stimuli/mB-M_none_O-X-X.png,stimuli/mW-L_none_O-X-X.png,stimuli/m0_none_O-X-X.png,stimuli/m0_wW-L_O-X-X.png,0,15,15,21,,,,,,,,,165.86085124319652,172.53252777666785,173.27195011387812,173.27195011387812,173.27195011387812,174.1608577875304,174.1608577875304,right,0.4711200549500063,166.9263626570464,,,S1,T-M,2023-01-25_09h29.24.923,knowing_that_K_ONLY,2022.2.5,59.74359858080901,
Does Anna know that the book is here?,Does Anna think that the book is here?,Is the book here?,early,9,per_9,per_K,1,1,1,switch,X-O-B,X-B-O,X-B-X,M,stimuli/blue-M.png,mB-R,m0,stimuli/m0_w0_X-O-B.png,stimuli/m0_wW-R_X-O-B.png,stimuli/m0_none_X-O-B.png,stimuli/mW-R_none_X-O-B.png,stimuli/mB-R_none_X-O-B.png,stimuli/mB-R_none_X-B-O.png,stimuli/mB-R_none_X-B-X.png,stimuli/mW-L_none_X-B-X.png,stimuli/m0_none_X-B-X.png,stimuli/m0_wW-L_X-B-X.png,0,16,16,8,,,,,,,,,174.66068423335673,181.33519505755976,182.0728991762153,182.0728991762153,182.0728991762153,182.9609519110527,182.9609519110527,left,0.007418224238790572,175.70244855765486,,,S1,T-M,2023-01-25_09h29.24.923,knowing_that_K_ONLY,2022.2.5,59.74359858080901,
Does Anna know that the book is here?,Does Anna think that the book is here?,Is the book here?,early,1,per_1,per_K,1,1,1,no,B-X-X,B-O-X,B-X-X,L,stimuli/blue-L.png,mB-M,m0,stimuli/m0_w0_B-X-X.png,stimuli/m0_wW-R_B-X-X.png,stimuli/m0_none_B-X-X.png,stimuli/mW-R_none_B-X-X.png,stimuli/mB-M_none_B-X-X.png,stimuli/mB-M_none_B-O-X.png,stimuli/mB-M_none_B-X-X.png,stimuli/mW-L_none_B-X-X.png,stimuli/m0_none_B-X-X.png,stimuli/m0_wW-L_B-X-X.png,0,17,17,0,,,,,,,,,182.99396827002056,189.64831376541406,190.38526752684265,190.38526752684265,190.38526752684265,191.29416184232105,191.29416184232105,left,0.618578239926137,184.0621070569032,,,S1,T-M,2023-01-25_09h29.24.923,knowing_that_K_ONLY,2022.2.5,59.74359858080901,
Does Anna know that the book is here?,Does Anna think that the book is here?,Is the book here?,late,4,per_4,per_K,1,1,1,no,O-X-B,O-O-B,O-X-B,R,stimuli/blue-R.png,mB-M,m0,stimuli/m0_w0_O-X-B.png,stimuli/mW-R_w0_O-X-B.png,stimuli/mB-M_w0_O-X-B.png,stimuli/mB-M_w0_O-O-B.png,stimuli/mB-M_w0_O-X-B.png,stimuli/mW-L_w0_O-X-B.png,stimuli/m0_wW-R_O-X-B.png,stimuli/m0_none_O-X-B.png,stimuli/m0_none_O-X-B.png,stimuli/m0_wW-L_O-X-B.png,0,18,18,3,,,,,,,,,191.9439926831401,198.59808923571836,199.3353448723792,199.3353448723792,199.3353448723792,200.24406210478628,200.24406210478628,left,0.3237398249329999,193.01045399333816,,,S1,T-M,2023-01-25_09h29.24.923,knowing_that_K_ONLY,2022.2.5,59.74359858080901,
Does Anna know that the book is here?,Does Anna think that the book is here?,Is the book here?,late,12,mem_3,mem_K,1,1,1,no,X-O-B,X-O-B,X-O-X,R,stimuli/blue-R.png,mB-M,m0,stimuli/m0_w0_X-O-B.png,stimuli/mW-R_w0_X-O-B.png,stimuli/mB-M_w0_X-O-B.png,stimuli/mB-M_w0_X-O-B.png,stimuli/mB-M_w0_X-O-X.png,stimuli/mW-L_w0_X-O-X.png,stimuli/m0_wW-R_X-O-X.png,stimuli/m0_none_X-O-X.png,stimuli/m0_none_X-O-X.png,stimuli/m0_wW-L_X-O-X.png,0,19,19,11,,,,,,,,,200.59402979997685,207.26680379902245,207.98444620810915,207.98444620810915,207.98444620810915,208.89402896590764,208.89402896590764,None,,201.66340624319855,211.89400618890068,211.89400618890068,S1,T-M,2023-01-25_09h29.24.923,knowing_that_K_ONLY,2022.2.5,59.74359858080901,
Does Anna know that the book is here?,Does Anna think that the book is here?,Is the book here?,late,11,mem_2,mem_K,1,1,1,no,O-B-O,O-B-X,O-X-X,M,stimuli/blue-M.png,mB-L,m0,stimuli/m0_w0_O-B-O.png,stimuli/mW-R_w0_O-B-O.png,stimuli/mB-L_w0_O-B-O.png,stimuli/mB-L_w0_O-B-X.png,stimuli/mB-L_w0_O-X-X.png,stimuli/mW-L_w0_O-X-X.png,stimuli/m0_wW-R_O-X-X.png,stimuli/m0_none_O-X-X.png,stimuli/m0_none_O-X-X.png,stimuli/m0_wW-L_O-X-X.png,0,20,20,10,,,,,,,,,211.91081335640047,218.5699760231655,219.30933195428224,219.30933195428224,219.30933195428224,220.19420072360663,220.19420072360663,right,1.2701709284447134,,,,S1,T-M,2023-01-25_09h29.24.923,knowing_that_K_ONLY,2022.2.5,59.74359858080901,
Does Anna know that the book is here?,Does Anna think that the book is here?,Is the book here?,early,2,per_2,per_K,1,1,1,no,X-X-B,O-X-B,X-X-B,R,stimuli/blue-R.png,mB-L,m0,stimuli/m0_w0_X-X-B.png,stimuli/m0_wW-R_X-X-B.png,stimuli/m0_none_X-X-B.png,stimuli/mW-R_none_X-X-B.png,stimuli/mB-L_none_X-X-B.png,stimuli/mB-L_none_O-X-B.png,stimuli/mB-L_none_X-X-B.png,stimuli/mW-L_none_X-X-B.png,stimuli/m0_none_X-X-B.png,stimuli/m0_wW-L_X-X-B.png,0,21,21,1,,,,,,,,,221.49402633530553,228.1468640586245,228.88517224852694,228.88517224852694,228.88517224852694,229.79388531047152,229.79388531047152,left,0.5583376123686321,222.55865682527656,,,S1,T-M,2023-01-25_09h29.24.923,knowing_that_K_ONLY,2022.2.5,59.74359858080901,
Does Anna know that the book is here?,Does Anna think that the book is here?,Is the book here?,late,17,mem_8,mem_K,1,1,1,switch,O-X-B,B-X-O,X-X-O,L,stimuli/blue-L.png,mB-M,m0,stimuli/m0_w0_O-X-B.png,stimuli/mW-R_w0_O-X-B.png,stimuli/mB-M_w0_O-X-B.png,stimuli/mB-M_w0_B-X-O.png,stimuli/mB-M_w0_X-X-O.png,stimuli/mW-L_w0_X-X-O.png,stimuli/m0_wW-R_X-X-O.png,stimuli/m0_none_X-X-O.png,stimuli/m0_none_X-X-O.png,stimuli/m0_wW-L_X-X-O.png,0,22,22,16,,,,,,,,,230.3774332072935,237.04910460789688,237.78843134600902,237.78843134600902,237.78843134600902,238.67739066883223,238.67739066883223,left,0.5148348589427769,231.4416745637427,,,S1,T-M,2023-01-25_09h29.24.923,knowing_that_K_ONLY,2022.2.5,59.74359858080901,
Does Anna know that the book is here?,Does Anna think that the book is here?,Is the book here?,late,18,mem_9,mem_K,1,1,1,switch,X-O-B,X-B-O,X-X-O,M,stimuli/blue-M.png,mB-L,m0,stimuli/m0_w0_X-O-B.png,stimuli/mW-R_w0_X-O-B.png,stimuli/mB-L_w0_X-O-B.png,stimuli/mB-L_w0_X-B-O.png,stimuli/mB-L_w0_X-X-O.png,stimuli/mW-L_w0_X-X-O.png,stimuli/m0_wW-R_X-X-O.png,stimuli/m0_none_X-X-O.png,stimuli/m0_none_X-X-O.png,stimuli/m0_wW-L_X-X-O.png,0,23,23,17,,,,,,,,,239.2107358505018,245.86371504771523,246.62410279538017,246.62410279538017,246.62410279538017,247.51085467578378,247.51085467578378,left,0.5058761263499036,240.27449247427285,,,S1,T-M,2023-01-25_09h29.24.923,knowing_that_K_ONLY,2022.2.5,59.74359858080901,
Does Anna know that the book is here?,Does Anna think that the book is here?,Is the book here?,late,16,mem_7,mem_K,1,1,1,switch,B-X-O,O-X-B,O-X-X,R,stimuli/blue-R.png,mB-M,m0,stimuli/m0_w0_B-X-O.png,stimuli/mW-R_w0_B-X-O.png,stimuli/mB-M_w0_B-X-O.png,stimuli/mB-M_w0_O-X-B.png,stimuli/mB-M_w0_O-X-X.png,stimuli/mW-L_w0_O-X-X.png,stimuli/m0_wW-R_O-X-X.png,stimuli/m0_none_O-X-X.png,stimuli/m0_none_O-X-X.png,stimuli/m0_wW-L_O-X-X.png,0,24,24,15,,,,,,,,,248.0440792356385,254.71756381244631,255.4518337395275,255.4518337395275,255.4518337395275,256.34442583075725,256.34442583075725,left,0.2555750531028025,249.10836229642155,,,S1,T-M,2023-01-25_09h29.24.923,knowing_that_K_ONLY,2022.2.5,59.74359858080901,
Does Anna know that the book is here?,Does Anna think that the book is here?,Is the book here?,early,19,no_1,no_K,0,0,0,no,X-X-X,O-X-X,X-X-X,L,stimuli/blue-L.png,mB-L,m0,stimuli/m0_w0_X-X-X.png,stimuli/m0_wW-R_X-X-X.png,stimuli/m0_none_X-X-X.png,stimuli/mW-R_none_X-X-X.png,stimuli/mB-L_none_X-X-X.png,stimuli/mB-L_none_O-X-X.png,stimuli/mB-L_none_X-X-X.png,stimuli/mW-L_none_X-X-X.png,stimuli/m0_none_X-X-X.png,stimuli/m0_wW-L_X-X-X.png,0,25,25,18,,,,,,,,,256.62741315714084,263.27989222313045,264.01802140520886,264.01802140520886,264.01802140520886,264.92750214773696,264.92750214773696,right,0.19344618159811944,257.6894659984391,,,S1,T-M,2023-01-25_09h29.24.923,knowing_that_K_ONLY,2022.2.5,59.74359858080901,
Does Anna know that the book is here?,Does Anna think that the book is here?,Is the book here?,late,15,mem_6,mem_K,1,1,1,no,X-B-O,X-B-X,X-X-X,M,stimuli/blue-M.png,mB-R,m0,stimuli/m0_w0_X-B-O.png,stimuli/mW-R_w0_X-B-O.png,stimuli/mB-R_w0_X-B-O.png,stimuli/mB-R_w0_X-B-X.png,stimuli/mB-R_w0_X-X-X.png,stimuli/mW-L_w0_X-X-X.png,stimuli/m0_wW-R_X-X-X.png,stimuli/m0_none_X-X-X.png,stimuli/m0_none_X-X-X.png,stimuli/m0_wW-L_X-X-X.png,0,26,26,14,,,,,,,,,265.14416225935565,271.7947136227158,272.5326573809143,272.5326573809143,272.5326573809143,273.44414827233413,273.44414827233413,left,0.284480327158235,266.2065346200252,,,S1,T-M,2023-01-25_09h29.24.923,knowing_that_K_ONLY,2022.2.5,59.74359858080901,
Does Anna know that the book is here?,Does Anna think that the book is here?,Is the book here?,late,6,per_6,per_K,1,1,1,no,X-B-X,O-B-X,X-B-X,M,stimuli/blue-M.png,mB-L,m0,stimuli/m0_w0_X-B-X.png,stimuli/mW-R_w0_X-B-X.png,stimuli/mB-L_w0_X-B-X.png,stimuli/mB-L_w0_O-B-X.png,stimuli/mB-L_w0_X-B-X.png,stimuli/mW-L_w0_X-B-X.png,stimuli/m0_wW-R_X-B-X.png,stimuli/m0_none_X-B-X.png,stimuli/m0_none_X-B-X.png,stimuli/m0_wW-L_X-B-X.png,0,27,27,5,,,,,,,,,273.7607807307504,280.4348466017982,281.1796908233082,281.1796908233082,281.1796908233082,282.0606236658641,282.0606236658641,left,0.7879806039854884,274.82833790261066,,,S1,T-M,2023-01-25_09h29.24.923,knowing_that_K_ONLY,2022.2.5,59.74359858080901,
,,,,,,,,,,,,,,,,,,,,,,,,,,,,,,,,,,,,14.672701497678645,14.672701497678645,left,8.336114242323674,,,,,,,,,,,,,S1,T-M,2023-01-25_09h34.18.899,knowing_that_K_ONLY,2022.2.5,59.936125689147715,
Does Anna know that the book is here?,Does Anna think that the book is here?,Is the book here?,early,9,per_9,per_K,1,1,1,switch,X-O-B,X-B-O,X-B-X,M,stimuli/blue-M.png,mB-R,m0,stimuli/m0_w0_X-O-B.png,stimuli/m0_wW-R_X-O-B.png,stimuli/m0_none_X-O-B.png,stimuli/mW-R_none_X-O-B.png,stimuli/mB-R_none_X-O-B.png,stimuli/mB-R_none_X-B-O.png,stimuli/mB-R_none_X-B-X.png,stimuli/mW-L_none_X-B-X.png,stimuli/m0_none_X-B-X.png,stimuli/m0_wW-L_X-B-X.png,0,0,0,8,,,,,,,,,23.060201810498256,29.699311108561233,30.457289308076724,30.457289308076724,30.457289308076724,31.32691065198742,31.32691065198742,left,0.4726635359111242,,,,S1,T-M,2023-01-25_09h34.18.899,knowing_that_K_ONLY,2022.2.5,59.936125689147715,
Does Anna know that the book is here?,Does Anna think that the book is here?,Is the book here?,early,28,no_10,no_K,0,0,0,hide,O-B-O,O-B-O,X-O-X,L,stimuli/blue-L.png,mB-M,m0,stimuli/m0_w0_O-B-O.png,stimuli/m0_wW-R_O-B-O.png,stimuli/m0_none_O-B-O.png,stimuli/mW-R_none_O-B-O.png,stimuli/mB-M_none_O-B-O.png,stimuli/mB-M_none_O-B-O.png,stimuli/mB-M_none_X-O-X.png,stimuli/mW-L_none_X-O-X.png,stimuli/m0_none_X-O-X.png,stimuli/m0_wW-L_X-O-X.png,0,1,1,27,,,,,,,,,31.826693147828337,38.4959816269693,39.237040378153324,39.237040378153324,39.237040378153324,40.12694606860168,40.12694606860168,right,0.633146305277478,32.88215734594269,,,S1,T-M,2023-01-25_09h34.18.899,knowing_that_K_ONLY,2022.2.5,59.936125689147715,
Does Anna know that the book is here?,Does Anna think that the book is here?,Is the book here?,early,2,per_2,per_K,1,1,1,no,X-X-B,O-X-B,X-X-B,R,stimuli/blue-R.png,mB-L,m0,stimuli/m0_w0_X-X-B.png,stimuli/m0_wW-R_X-X-B.png,stimuli/m0_none_X-X-B.png,stimuli/mW-R_none_X-X-B.png,stimuli/mB-L_none_X-X-B.png,stimuli/mB-L_none_O-X-B.png,stimuli/mB-L_none_X-X-B.png,stimuli/mW-L_none_X-X-B.png,stimuli/m0_none_X-X-B.png,stimuli/m0_wW-L_X-X-B.png,0,2,2,1,,,,,,,,,40.77687058376614,47.44708040787373,48.18932612851495,48.18932612851495,48.18932612851495,49.07717868254986,49.07717868254986,left,0.7316448850906454,41.82426691800356,,,S1,T-M,2023-01-25_09h34.18.899,knowing_that_K_ONLY,2022.2.5,59.936125689147715,
Does Anna know that the book is here?,Does Anna think that the book is here?,Is the book here?,early,27,no_9,no_K,0,0,0,hide,X-X-B,O-O-B,X-X-O,L,stimuli/blue-L.png,mB-M,m0,stimuli/m0_w0_X-X-B.png,stimuli/m0_wW-R_X-X-B.png,stimuli/m0_none_X-X-B.png,stimuli/mW-R_none_X-X-B.png,stimuli/mB-M_none_X-X-B.png,stimuli/mB-M_none_O-O-B.png,stimuli/mB-M_none_X-X-O.png,stimuli/mW-L_none_X-X-O.png,stimuli/m0_none_X-X-O.png,stimuli/m0_wW-L_X-X-O.png,0,3,3,26,,,,,,,,,49.82686156919226,56.49699087184854,57.23644015652826,57.23644015652826,57.23644015652826,58.126971091201995,58.126971091201995,right,0.42527554248226807,50.88050777913304,,,S1,T-M,2023-01-25_09h34.18.899,knowing_that_K_ONLY,2022.2.5,59.936125689147715,
Does Anna know that the book is here?,Does Anna think that the book is here?,Is the book here?,early,24,no_6,no_K,0,0,0,no,X-X-X,X-X-O,X-X-X,R,stimuli/blue-R.png,mB-R,m0,stimuli/m0_w0_X-X-X.png,stimuli/m0_wW-R_X-X-X.png,stimuli/m0_none_X-X-X.png,stimuli/mW-R_none_X-X-X.png,stimuli/mB-R_none_X-X-X.png,stimuli/mB-R_none_X-X-O.png,stimuli/mB-R_none_X-X-X.png,stimuli/mW-L_none_X-X-X.png,stimuli/m0_none_X-X-X.png,stimuli/m0_wW-L_X-X-X.png,0,4,4,23,,,,,,,,,58.57711227639811,65.24525196151808,65.98650383582572,65.98650383582572,65.98650383582572,66.87711272551678,66.87711272551678,right,0.4350048428750597,59.63027984893415,,,S1,T-M,2023-01-25_09h34.18.899,knowing_that_K_ONLY,2022.2.5,59.936125689147715,
Does Anna know that the book is here?,Does Anna think that the book is here?,Is the book here?,late,17,mem_8,mem_K,1,1,1,switch,O-X-B,B-X-O,X-X-O,L,stimuli/blue-L.png,mB-M,m0,stimuli/m0_w0_O-X-B.png,stimuli/mW-R_w0_O-X-B.png,stimuli/mB-M_w0_O-X-B.png,stimuli/mB-M_w0_B-X-O.png,stimuli/mB-M_w0_X-X-O.png,stimuli/mW-L_w0_X-X-O.png,stimuli/m0_wW-R_X-X-O.png,stimuli/m0_none_X-X-O.png,stimuli/m0_none_X-X-O.png,stimuli/m0_wW-L_X-X-O.png,0,5,5,16,,,,,,,,,67.34329853049712,74.01513610687107,74.75249151315074,74.75249151315074,74.75249151315074,75.64364640880376,75.64364640880376,left,0.5646912070224062,68.40135353017831,,,S1,T-M,2023-01-25_09h34.18.899,knowing_that_K_ONLY,2022.2.5,59.936125689147715,
Does Anna know that the book is here?,Does Anna think that the book is here?,Is the book here?,early,25,no_7,no_K,0,0,0,hide,B-X-X,B-O-O,O-X-X,M,stimuli/blue-M.png,mB-L,m0,stimuli/m0_w0_B-X-X.png,stimuli/m0_wW-R_B-X-X.png,stimuli/m0_none_B-X-X.png,stimuli/mW-R_none_B-X-X.png,stimuli/mB-L_none_B-X-X.png,stimuli/mB-L_none_B-O-O.png,stimuli/mB-L_none_O-X-X.png,stimuli/mW-L_none_O-X-X.png,stimuli/m0_none_O-X-X.png,stimuli/m0_wW-L_O-X-X.png,0,6,6,24,,,,,,,,,76.22683244029758,82.89571927464567,83.63692591578001,83.63692591578001,83.63692591578001,84.52684796717949,84.52684796717949,right,0.5617010062560439,77.28432250668993,,,S1,T-M,2023-01-25_09h34.18.899,knowing_that_K_ONLY,2022.2.5,59.936125689147715,
Does Anna know that the book is here?,Does Anna think that the book is here?,Is the book here?,late,13,mem_4,mem_K,1,1,1,no,B-X-O,B-X-O,X-X-O,L,stimuli/blue-L.png,mB-M,m0,stimuli/m0_w0_B-X-O.png,stimuli/mW-R_w0_B-X-O.png,stimuli/mB-M_w0_B-X-O.png,stimuli/mB-M_w0_B-X-O.png,stimuli/mB-M_w0_X-X-O.png,stimuli/mW-L_w0_X-X-O.png,stimuli/m0_wW-R_X-X-O.png,stimuli/m0_none_X-X-O.png,stimuli/m0_none_X-X-O.png,stimuli/m0_wW-L_X-X-O.png,0,7,7,12,,,,,,,,,85.11013440985698,91.7805068808957,92.52199229947291,92.52199229947291,92.52199229947291,93.41005433752434,93.41005433752434,left,0.526741546113044,86.16424129228108,,,S1,T-M,2023-01-25_09h34.18.899,knowing_that_K_ONLY,2022.2.5,59.936125689147715,
Does Anna know that the book is here?,Does Anna think that the book is here?,Is the book here?,late,10,mem_1,mem_K,1,1,1,no,O-X-B,X-X-B,X-X-X,R,stimuli/blue-R.png,mB-M,m0,stimuli/m0_w0_O-X-B.png,stimuli/mW-R_w0_O-X-B.png,stimuli/mB-M_w0_O-X-B.png,stimuli/mB-M_w0_X-X-B.png,stimuli/mB-M_w0_X-X-X.png,stimuli/mW-L_w0_X-X-X.png,stimuli/m0_wW-R_X-X-X.png,stimuli/m0_none_X-X-X.png,stimuli/m0_none_X-X-X.png,stimuli/m0_wW-L_X-X-X.png,0,8,8,9,,,,,,,,,93.96022016037023,100.63097438646946,101.3712952916976,101.3712952916976,101.3712952916976,102.26038967247587,102.26038967247587,left,1.0760447307839058,95.01157551916549,,,S1,T-M,2023-01-25_09h34.18.899,knowing_that_K_ONLY,2022.2.5,59.936125689147715,
Does Anna know that the book is here?,Does Anna think that the book is here?,Is the book here?,early,3,per_3,per_K,1,1,1,no,O-B-X,O-B-O,O-B-X,M,stimuli/blue-M.png,mB-R,m0,stimuli/m0_w0_O-B-X.png,stimuli/m0_wW-R_O-B-X.png,stimuli/m0_none_O-B-X.png,stimuli/mW-R_none_O-B-X.png,stimuli/mB-R_none_O-B-X.png,stimuli/mB-R_none_O-B-O.png,stimuli/mB-R_none_O-B-X.png,stimuli/mW-L_none_O-B-X.png,stimuli/m0_none_O-B-X.png,stimuli/m0_wW-L_O-B-X.png,0,9,9,2,,,,,,,,,103.36035496159457,110.03494277840946,110.77418642863631,110.77418642863631,110.77418642863631,111.660547892272,111.660547892272,left,0.8349324056762271,104.41691405890742,,,S1,T-M,2023-01-25_09h34.18.899,knowing_that_K_ONLY,2022.2.5,59.936125689147715,
Does Anna know that the book is here?,Does Anna think that the book is here?,Is the book here?,late,4,per_4,per_K,1,1,1,no,O-X-B,O-O-B,O-X-B,R,stimuli/blue-R.png,mB-M,m0,stimuli/m0_w0_O-X-B.png,stimuli/mW-R_w0_O-X-B.png,stimuli/mB-M_w0_O-X-B.png,stimuli/mB-M_w0_O-O-B.png,stimuli/mB-M_w0_O-X-B.png,stimuli/mW-L_w0_O-X-B.png,stimuli/m0_wW-R_O-X-B.png,stimuli/m0_none_O-X-B.png,stimuli/m0_none_O-X-B.png,stimuli/m0_wW-L_O-X-B.png,0,10,10,3,,,,,,,,,112.52670392679283,119.20026934583439,119.93485077226069,119.93485077226069,119.93485077226069,120.82690070709214,120.82690070709214,left,0.8140086996136233,113.57613222452346,,,S1,T-M,2023-01-25_09h34.18.899,knowing_that_K_ONLY,2022.2.5,59.936125689147715,
Does Anna know that the book is here?,Does Anna think that the book is here?,Is the book here?,early,8,per_8,per_K,1,1,1,switch,O-X-B,B-X-O,B-X-X,L,stimuli/blue-L.png,mB-L,m0,stimuli/m0_w0_O-X-B.png,stimuli/m0_wW-R_O-X-B.png,stimuli/m0_none_O-X-B.png,stimuli/mW-R_none_O-X-B.png,stimuli/mB-L_none_O-X-B.png,stimuli/mB-L_none_B-X-O.png,stimuli/mB-L_none_B-X-X.png,stimuli/mW-L_none_B-X-X.png,stimuli/m0_none_B-X-X.png,stimuli/m0_wW-L_B-X-X.png,0,11,11,7,,,,,,,,,121.66019565105671,128.33195463079028,129.0725953761721,129.0725953761721,129.0725953761721,129.9604418349336,129.9604418349336,left,0.5832906984724104,122.71719873911934,,,S1,T-M,2023-01-25_09h34.18.899,knowing_that_K_ONLY,2022.2.5,59.936125689147715,
Does Anna know that the book is here?,Does Anna think that the book is here?,Is the book here?,late,18,mem_9,mem_K,1,1,1,switch,X-O-B,X-B-O,X-X-O,M,stimuli/blue-M.png,mB-L,m0,stimuli/m0_w0_X-O-B.png,stimuli/mW-R_w0_X-O-B.png,stimuli/mB-L_w0_X-O-B.png,stimuli/mB-L_w0_X-B-O.png,stimuli/mB-L_w0_X-X-O.png,stimuli/mW-L_w0_X-X-O.png,stimuli/m0_wW-R_X-X-O.png,stimuli/m0_none_X-X-O.png,stimuli/m0_none_X-X-O.png,stimuli/m0_wW-L_X-X-O.png,0,12,12,17,,,,,,,,,130.56038755516056,137.23219465528382,137.96672507410403,137.96672507410403,137.96672507410403,138.86051664612023,138.86051664612023,left,0.38893695204751566,131.61475428770063,,,S1,T-M,2023-01-25_09h34.18.899,knowing_that_K_ONLY,2022.2.5,59.936125689147715,
Does Anna know that the book is here?,Does Anna think that the book is here?,Is the book here?,early,20,no_2,no_K,0,0,0,no,X-O-X,O-O-X,X-O-X,L,stimuli/blue-L.png,mB-L,m0,stimuli/m0_w0_X-O-X.png,stimuli/m0_wW-R_X-O-X.png,stimuli/m0_none_X-O-X.png,stimuli/mW-R_none_X-O-X.png,stimuli/mB-L_none_X-O-X.png,stimuli/mB-L_none_O-O-X.png,stimuli/mB-L_none_X-O-X.png,stimuli/mW-L_none_X-O-X.png,stimuli/m0_none_X-O-X.png,stimuli/m0_wW-L_X-O-X.png,0,13,13,19,,,,,,,,,139.27699633833254,145.94584820518503,146.68837142008124,146.68837142008124,146.68837142008124,147.57707442168612,147.57707442168612,right,0.8226280230446719,140.32872029929422,,,S1,T-M,2023-01-25_09h34.18.899,knowing_that_K_ONLY,2022.2.5,59.936125689147715,
Does Anna know that the book is here?,Does Anna think that the book is here?,Is the book here?,late,11,mem_2,mem_K,1,1,1,no,O-B-O,O-B-X,O-X-X,M,stimuli/blue-M.png,mB-L,m0,stimuli/m0_w0_O-B-O.png,stimuli/mW-R_w0_O-B-O.png,stimuli/mB-L_w0_O-B-O.png,stimuli/mB-L_w0_O-B-X.png,stimuli/mB-L_w0_O-X-X.png,stimuli/mW-L_w0_O-X-X.png,stimuli/m0_wW-R_O-X-X.png,stimuli/m0_none_O-X-X.png,stimuli/m0_none_O-X-X.png,stimuli/m0_wW-L_O-X-X.png,0,14,14,10,,,,,,,,,148.4267514697276,155.09677105792798,155.83556462213164,155.83556462213164,155.83556462213164,156.72728380950866,156.72728380950866,right,2.161161352181807,149.48673513450194,,,S1,T-M,2023-01-25_09h34.18.899,knowing_that_K_ONLY,2022.2.5,59.936125689147715,
Does Anna know that the book is here?,Does Anna think that the book is here?,Is the book here?,late,6,per_6,per_K,1,1,1,no,X-B-X,O-B-X,X-B-X,M,stimuli/blue-M.png,mB-L,m0,stimuli/m0_w0_X-B-X.png,stimuli/mW-R_w0_X-B-X.png,stimuli/mB-L_w0_X-B-X.png,stimuli/mB-L_w0_O-B-X.png,stimuli/mB-L_w0_X-B-X.png,stimuli/mW-L_w0_X-B-X.png,stimuli/m0_wW-R_X-B-X.png,stimuli/m0_none_X-B-X.png,stimuli/m0_none_X-B-X.png,stimuli/m0_wW-L_X-B-X.png,0,15,15,5,,,,,,,,,158.91032798209926,165.5814434319036,166.32015454984503,166.32015454984503,166.32015454984503,167.21048466209322,167.21048466209322,left,0.32679589005419984,159.970422965358,,,S1,T-M,2023-01-25_09h34.18.899,knowing_that_K_ONLY,2022.2.5,59.936125689147715,
Does Anna know that the book is here?,Does Anna think that the book is here?,Is the book here?,early,21,no_3,no_K,0,0,0,no,X-X-O,X-O-O,X-X-O,M,stimuli/blue-M.png,mB-M,m0,stimuli/m0_w0_X-X-O.png,stimuli/m0_wW-R_X-X-O.png,stimuli/m0_none_X-X-O.png,stimuli/mW-R_none_X-X-O.png,stimuli/mB-M_none_X-X-O.png,stimuli/mB-M_none_X-O-O.png,stimuli/mB-M_none_X-X-O.png,stimuli/mW-L_none_X-X-O.png,stimuli/m0_none_X-X-O.png,stimuli/m0_wW-L_X-X-O.png,0,16,16,20,,,,,,,,,167.56014663242968,174.2300600350136,174.97250337002333,174.97250337002333,174.97250337002333,175.86049964360427,175.86049964360427,right,0.5079534226679243,168.61506354133599,,,S1,T-M,2023-01-25_09h34.18.899,knowing_that_K_ONLY,2022.2.5,59.936125689147715,
Does Anna know that the book is here?,Does Anna think that the book is here?,Is the book here?,early,7,per_7,per_K,1,1,1,switch,B-X-O,O-X-B,X-X-B,R,stimuli/blue-R.png,mB-R,m0,stimuli/m0_w0_B-X-O.png,stimuli/m0_wW-R_B-X-O.png,stimuli/m0_none_B-X-O.png,stimuli/mW-R_none_B-X-O.png,stimuli/mB-R_none_B-X-O.png,stimuli/mB-R_none_O-X-B.png,stimuli/mB-R_none_X-X-B.png,stimuli/mW-L_none_X-X-B.png,stimuli/m0_none_X-X-B.png,stimuli/m0_wW-L_X-X-B.png,0,17,17,6,,,,,,,,,176.3935166441952,183.0661780415685,183.8029739681515,183.8029739681515,183.8029739681515,184.69317223055987,184.69317223055987,left,0.9467487834044732,177.44643366988748,,,S1,T-M,2023-01-25_09h34.18.899,knowing_that_K_ONLY,2022.2.5,59.936125689147715,
Does Anna know that the book is here?,Does Anna think that the book is here?,Is the book here?,early,22,no_4,no_K,0,0,0,no,O-X-X,O-O-X,O-X-X,M,stimuli/blue-M.png,mB-M,m0,stimuli/m0_w0_O-X-X.png,stimuli/m0_wW-R_O-X-X.png,stimuli/m0_none_O-X-X.png,stimuli/mW-R_none_O-X-X.png,stimuli/mB-M_none_O-X-X.png,stimuli/mB-M_none_O-O-X.png,stimuli/mB-M_none_O-X-X.png,stimuli/mW-L_none_O-X-X.png,stimuli/m0_none_O-X-X.png,stimuli/m0_wW-L_O-X-X.png,0,18,18,21,,,,,,,,,185.66055045870598,192.33279930398567,193.0684656847152,193.0684656847152,193.0684656847152,193.9605063162744,193.9605063162744,right,0.9602603460662067,186.7120543490746,,,S1,T-M,2023-01-25_09h34.18.899,knowing_that_K_ONLY,2022.2.5,59.936125689147715,
Does Anna know that the book is here?,Does Anna think that the book is here?,Is the book here?,early,19,no_1,no_K,0,0,0,no,X-X-X,O-X-X,X-X-X,L,stimuli/blue-L.png,mB-L,m0,stimuli/m0_w0_X-X-X.png,stimuli/m0_wW-R_X-X-X.png,stimuli/m0_none_X-X-X.png,stimuli/mW-R_none_X-X-X.png,stimuli/mB-L_none_X-X-X.png,stimuli/mB-L_none_O-X-X.png,stimuli/mB-L_none_X-X-X.png,stimuli/mW-L_none_X-X-X.png,stimuli/m0_none_X-X-X.png,stimuli/m0_wW-L_X-X-X.png,0,19,19,18,,,,,,,,,194.94373732426902,201.61428719916148,202.35257614089642,202.35257614089642,202.35257614089642,203.24399922747398,203.24399922747398,right,0.38108306349022314,195.99828787666047,,,S1,T-M,2023-01-25_09h34.18.899,knowing_that_K_ONLY,2022.2.5,59.936125689147715,
Does Anna know that the book is here?,Does Anna think that the book is here?,Is the book here?,late,14,mem_5,mem_K,1,1,1,no,O-B-X,O-B-X,O-X-X,M,stimuli/blue-M.png,mB-L,m0,stimuli/m0_w0_O-B-X.png,stimuli/mW-R_w0_O-B-X.png,stimuli/mB-L_w0_O-B-X.png,stimuli/mB-L_w0_O-B-X.png,stimuli/mB-L_w0_O-X-X.png,stimuli/mW-L_w0_O-X-X.png,stimuli/m0_wW-R_O-X-X.png,stimuli/m0_none_O-X-X.png,stimuli/m0_none_O-X-X.png,stimuli/m0_wW-L_O-X-X.png,0,20,20,13,,,,,,,,,203.64368875476066,210.31539223564323,211.05400807521073,211.05400807521073,211.05400807521073,211.94389002630487,211.94389002630487,left,0.32799537089886144,204.7010925252107,,,S1,T-M,2023-01-25_09h34.18.899,knowing_that_K_ONLY,2022.2.5,59.936125689147715,
Does Anna know that the book is here?,Does Anna think that the book is here?,Is the book here?,late,5,per_5,per_K,1,1,1,no,X-B-O,O-B-O,X-B-O,M,stimuli/blue-M.png,mB-L,m0,stimuli/m0_w0_X-B-O.png,stimuli/mW-R_w0_X-B-O.png,stimuli/mB-L_w0_X-B-O.png,stimuli/mB-L_w0_O-B-O.png,stimuli/mB-L_w0_X-B-O.png,stimuli/mW-L_w0_X-B-O.png,stimuli/m0_wW-R_X-B-O.png,stimuli/m0_none_X-B-O.png,stimuli/m0_none_X-B-O.png,stimuli/m0_wW-L_X-B-O.png,0,21,21,4,,,,,,,,,212.29358183126897,218.96514095104067,219.70163532317383,219.70163532317383,219.70163532317383,220.59397847158834,220.59397847158834,left,0.174205505521968,213.35192747809924,,,S1,T-M,2023-01-25_09h34.18.899,knowing_that_K_ONLY,2022.2.5,59.936125689147715,
Does Anna know that the book is here?,Does Anna think that the book is here?,Is the book here?,early,26,no_8,no_K,0,0,0,hide,X-B-O,O-B-O,X-O-X,R,stimuli/blue-R.png,mB-L,m0,stimuli/m0_w0_X-B-O.png,stimuli/m0_wW-R_X-B-O.png,stimuli/m0_none_X-B-O.png,stimuli/mW-R_none_X-B-O.png,stimuli/mB-L_none_X-B-O.png,stimuli/mB-L_none_O-B-O.png,stimuli/mB-L_none_X-O-X.png,stimuli/mW-L_none_X-O-X.png,stimuli/m0_none_X-O-X.png,stimuli/m0_wW-L_X-O-X.png,0,22,22,25,,,,,,,,,220.79384905978804,227.46451987721957,228.20488922367804,228.20488922367804,228.20488922367804,229.09382801514585,229.09382801514585,right,0.37877071858383715,221.84483806206845,,,S1,T-M,2023-01-25_09h34.18.899,knowing_that_K_ONLY,2022.2.5,59.936125689147715,
Does Anna know that the book is here?,Does Anna think that the book is here?,Is the book here?,late,16,mem_7,mem_K,1,1,1,switch,B-X-O,O-X-B,O-X-X,R,stimuli/blue-R.png,mB-M,m0,stimuli/m0_w0_B-X-O.png,stimuli/mW-R_w0_B-X-O.png,stimuli/mB-M_w0_B-X-O.png,stimuli/mB-M_w0_O-X-B.png,stimuli/mB-M_w0_O-X-X.png,stimuli/mW-L_w0_O-X-X.png,stimuli/m0_wW-R_O-X-X.png,stimuli/m0_none_O-X-X.png,stimuli/m0_none_O-X-X.png,stimuli/m0_wW-L_O-X-X.png,0,23,23,15,,,,,,,,,229.49390410952037,236.16531213128474,236.90565324708587,236.90565324708587,236.90565324708587,237.79376276390394,237.79376276390394,left,0.4539472722681239,230.5486910933978,,,S1,T-M,2023-01-25_09h34.18.899,knowing_that_K_ONLY,2022.2.5,59.936125689147715,
Does Anna know that the book is here?,Does Anna think that the book is here?,Is the book here?,early,23,no_5,no_K,0,0,0,no,X-O-X,X-O-O,X-O-X,R,stimuli/blue-R.png,mB-R,m0,stimuli/m0_w0_X-O-X.png,stimuli/m0_wW-R_X-O-X.png,stimuli/m0_none_X-O-X.png,stimuli/mW-R_none_X-O-X.png,stimuli/mB-R_none_X-O-X.png,stimuli/mB-R_none_X-O-O.png,stimuli/mB-R_none_X-O-X.png,stimuli/mW-L_none_X-O-X.png,stimuli/m0_none_X-O-X.png,stimuli/m0_wW-L_X-O-X.png,0,24,24,22,,,,,,,,,238.27711022325093,244.93409560300643,245.6635445090942,245.6635445090942,245.6635445090942,246.5772508631344,246.5772508631344,right,0.6872855887049809,239.33376812771894,,,S1,T-M,2023-01-25_09h34.18.899,knowing_that_K_ONLY,2022.2.5,59.936125689147715,
Does Anna know that the book is here?,Does Anna think that the book is here?,Is the book here?,late,12,mem_3,mem_K,1,1,1,no,X-O-B,X-O-B,X-O-X,R,stimuli/blue-R.png,mB-M,m0,stimuli/m0_w0_X-O-B.png,stimuli/mW-R_w0_X-O-B.png,stimuli/mB-M_w0_X-O-B.png,stimuli/mB-M_w0_X-O-B.png,stimuli/mB-M_w0_X-O-X.png,stimuli/mW-L_w0_X-O-X.png,stimuli/m0_wW-R_X-O-X.png,stimuli/m0_none_X-O-X.png,stimuli/m0_none_X-O-X.png,stimuli/m0_wW-L_X-O-X.png,0,25,25,11,,,,,,,,,247.29378618253395,253.96651623165235,254.70451131823938,254.70451131823938,254.70451131823938,255.59383186482592,255.59383186482592,left,0.8790944084175862,248.35069495462812,,,S1,T-M,2023-01-25_09h34.18.899,knowing_that_K_ONLY,2022.2.5,59.936125689147715,
Does Anna know that the book is here?,Does Anna think that the book is here?,Is the book here?,late,15,mem_6,mem_K,1,1,1,no,X-B-O,X-B-X,X-X-X,M,stimuli/blue-M.png,mB-R,m0,stimuli/m0_w0_X-B-O.png,stimuli/mW-R_w0_X-B-O.png,stimuli/mB-R_w0_X-B-O.png,stimuli/mB-R_w0_X-B-X.png,stimuli/mB-R_w0_X-X-X.png,stimuli/mW-L_w0_X-X-X.png,stimuli/m0_wW-R_X-X-X.png,stimuli/m0_none_X-X-X.png,stimuli/m0_none_X-X-X.png,stimuli/m0_wW-L_X-X-X.png,0,26,26,14,,,,,,,,,256.49387716210913,263.1639480787562,263.9031102450681,263.9031102450681,263.9031102450681,264.79396871919744,264.79396871919744,left,0.4699951001093723,257.55331802892033,,,S1,T-M,2023-01-25_09h34.18.899,knowing_that_K_ONLY,2022.2.5,59.936125689147715,
Does Anna know that the book is here?,Does Anna think that the book is here?,Is the book here?,early,1,per_1,per_K,1,1,1,no,B-X-X,B-O-X,B-X-X,L,stimuli/blue-L.png,mB-M,m0,stimuli/m0_w0_B-X-X.png,stimuli/m0_wW-R_B-X-X.png,stimuli/m0_none_B-X-X.png,stimuli/mW-R_none_B-X-X.png,stimuli/mB-M_none_B-X-X.png,stimuli/mB-M_none_B-O-X.png,stimuli/mB-M_none_B-X-X.png,stimuli/mW-L_none_B-X-X.png,stimuli/m0_none_B-X-X.png,stimuli/m0_wW-L_B-X-X.png,0,27,27,0,,,,,,,,,265.29385066381656,271.9635616399464,272.7050425672787,272.7050425672787,272.7050425672787,273.59388768445933,273.59388768445933,left,0.7356699949014001,266.3483883840963,,,S1,T-M,2023-01-25_09h34.18.899,knowing_that_K_ONLY,2022.2.5,59.936125689147715,
,,,,,,,,,,,,,,,,,,,,,,,,,,,,,,,,,,,,12.170051989261992,12.170051989261992,left,4.610134986054618,,,,,,,,,,,,,S1,T-M,2023-01-25_09h39.12.492,knowing_that_K_ONLY,2022.2.5,59.9838743822355,
Does Anna know that the book is here?,Does Anna think that the book is here?,Is the book here?,late,6,per_6,per_K,1,1,1,no,X-B-X,O-B-X,X-B-X,M,stimuli/blue-M.png,mB-L,m0,stimuli/m0_w0_X-B-X.png,stimuli/mW-R_w0_X-B-X.png,stimuli/mB-L_w0_X-B-X.png,stimuli/mB-L_w0_O-B-X.png,stimuli/mB-L_w0_X-B-X.png,stimuli/mW-L_w0_X-B-X.png,stimuli/m0_wW-R_X-B-X.png,stimuli/m0_none_X-B-X.png,stimuli/m0_none_X-B-X.png,stimuli/m0_wW-L_X-B-X.png,0,0,0,5,,,,,,,,,16.834656430059113,23.477620812598616,24.237027866824064,24.237027866824064,24.237027866824064,25.102053072303534,25.102053072303534,left,0.05418830085545778,,,,S1,T-M,2023-01-25_09h39.12.492,knowing_that_K_ONLY,2022.2.5,59.9838743822355,
Does Anna know that the book is here?,Does Anna think that the book is here?,Is the book here?,early,28,no_10,no_K,0,0,0,hide,O-B-O,O-B-O,X-O-X,L,stimuli/blue-L.png,mB-M,m0,stimuli/m0_w0_O-B-O.png,stimuli/m0_wW-R_O-B-O.png,stimuli/m0_none_O-B-O.png,stimuli/mW-R_none_O-B-O.png,stimuli/mB-M_none_O-B-O.png,stimuli/mB-M_none_O-B-O.png,stimuli/mB-M_none_X-O-X.png,stimuli/mW-L_none_X-O-X.png,stimuli/m0_none_X-O-X.png,stimuli/m0_wW-L_X-O-X.png,0,1,1,27,,,,,,,,,25.185345610196237,31.85840512358118,32.60169441497419,32.60169441497419,32.60169441497419,33.48521870072,33.48521870072,right,0.43148227978963405,26.24603311577812,,,S1,T-M,2023-01-25_09h39.12.492,knowing_that_K_ONLY,2022.2.5,59.9838743822355,
Does Anna know that the book is here?,Does Anna think that the book is here?,Is the book here?,early,1,per_1,per_K,1,1,1,no,B-X-X,B-O-X,B-X-X,L,stimuli/blue-L.png,mB-M,m0,stimuli/m0_w0_B-X-X.png,stimuli/m0_wW-R_B-X-X.png,stimuli/m0_none_B-X-X.png,stimuli/mW-R_none_B-X-X.png,stimuli/mB-M_none_B-X-X.png,stimuli/mB-M_none_B-O-X.png,stimuli/mB-M_none_B-X-X.png,stimuli/mW-L_none_B-X-X.png,stimuli/m0_none_B-X-X.png,stimuli/m0_wW-L_B-X-X.png,0,2,2,0,,,,,,,,,33.93524696340319,40.608428060950246,41.324851741082966,41.324851741082966,41.324851741082966,42.235359693469945,42.235359693469945,left,0.47310320544056594,34.989274928404484,,,S1,T-M,2023-01-25_09h39.12.492,knowing_that_K_ONLY,2022.2.5,59.9838743822355,
Does Anna know that the book is here?,Does Anna think that the book is here?,Is the book here?,early,2,per_2,per_K,1,1,1,no,X-X-B,O-X-B,X-X-B,R,stimuli/blue-R.png,mB-L,m0,stimuli/m0_w0_X-X-B.png,stimuli/m0_wW-R_X-X-B.png,stimuli/m0_none_X-X-B.png,stimuli/mW-R_none_X-X-B.png,stimuli/mB-L_none_X-X-B.png,stimuli/mB-L_none_O-X-B.png,stimuli/mB-L_none_X-X-B.png,stimuli/mW-L_none_X-X-B.png,stimuli/m0_none_X-X-B.png,stimuli/m0_wW-L_X-X-B.png,0,3,3,1,,,,,,,,,42.73542674118653,49.4090713984333,50.14841930946568,50.14841930946568,50.14841930946568,51.03555551136378,51.03555551136378,left,0.39307740004733205,43.791746840579435,,,S1,T-M,2023-01-25_09h39.12.492,knowing_that_K_ONLY,2022.2.5,59.9838743822355,
Does Anna know that the book is here?,Does Anna think that the book is here?,Is the book here?,late,17,mem_8,mem_K,1,1,1,switch,O-X-B,B-X-O,X-X-O,L,stimuli/blue-L.png,mB-M,m0,stimuli/m0_w0_O-X-B.png,stimuli/mW-R_w0_O-X-B.png,stimuli/mB-M_w0_O-X-B.png,stimuli/mB-M_w0_B-X-O.png,stimuli/mB-M_w0_X-X-O.png,stimuli/mW-L_w0_X-X-O.png,stimuli/m0_wW-R_X-X-O.png,stimuli/m0_none_X-X-O.png,stimuli/m0_none_X-X-O.png,stimuli/m0_wW-L_X-X-O.png,0,4,4,16,,,,,,,,,51.45201723865466,58.10403787775431,58.864558437722735,58.864558437722735,58.864558437722735,59.75211392849451,59.75211392849451,left,0.18152767338324338,52.51173688285053,,,S1,T-M,2023-01-25_09h39.12.492,knowing_that_K_ONLY,2022.2.5,59.9838743822355,
Does Anna know that the book is here?,Does Anna think that the book is here?,Is the book here?,early,26,no_8,no_K,0,0,0,hide,X-B-O,O-B-O,X-O-X,R,stimuli/blue-R.png,mB-L,m0,stimuli/m0_w0_X-B-O.png,stimuli/m0_wW-R_X-B-O.png,stimuli/m0_none_X-B-O.png,stimuli/mW-R_none_X-B-O.png,stimuli/mB-L_none_X-B-O.png,stimuli/mB-L_none_O-B-O.png,stimuli/mB-L_none_X-O-X.png,stimuli/mW-L_none_X-O-X.png,stimuli/m0_none_X-O-X.png,stimuli/m0_wW-L_X-O-X.png,0,5,5,25,,,,,,,,,59.95206279261038,66.6271363045089,67.36421132931719,67.36421132931719,67.36421132931719,68.25220343243564,68.25220343243564,right,0.6165596991195343,61.01559966662899,,,S1,T-M,2023-01-25_09h39.12.492,knowing_that_K_ONLY,2022.2.5,59.9838743822355,
Does Anna know that the book is here?,Does Anna think that the book is here?,Is the book here?,late,18,mem_9,mem_K,1,1,1,switch,X-O-B,X-B-O,X-X-O,M,stimuli/blue-M.png,mB-L,m0,stimuli/m0_w0_X-O-B.png,stimuli/mW-R_w0_X-O-B.png,stimuli/mB-L_w0_X-O-B.png,stimuli/mB-L_w0_X-B-O.png,stimuli/mB-L_w0_X-X-O.png,stimuli/mW-L_w0_X-X-O.png,stimuli/m0_wW-R_X-X-O.png,stimuli/m0_none_X-X-O.png,stimuli/m0_none_X-X-O.png,stimuli/m0_wW-L_X-X-O.png,0,6,6,17,,,,,,,,,68.88542504090583,75.5371739602997,76.27541061124066,76.27541061124066,76.27541061124066,77.1854752144427,77.1854752144427,left,0.33143358200322837,69.95095089089591,,,S1,T-M,2023-01-25_09h39.12.492,knowing_that_K_ONLY,2022.2.5,59.9838743822355,
Does Anna know that the book is here?,Does Anna think that the book is here?,Is the book here?,late,4,per_4,per_K,1,1,1,no,O-X-B,O-O-B,O-X-B,R,stimuli/blue-R.png,mB-M,m0,stimuli/m0_w0_O-X-B.png,stimuli/mW-R_w0_O-X-B.png,stimuli/mB-M_w0_O-X-B.png,stimuli/mB-M_w0_O-O-B.png,stimuli/mB-M_w0_O-X-B.png,stimuli/mW-L_w0_O-X-B.png,stimuli/m0_wW-R_O-X-B.png,stimuli/m0_none_O-X-B.png,stimuli/m0_none_O-X-B.png,stimuli/m0_wW-L_O-X-B.png,0,7,7,3,,,,,,,,,77.53543713520048,84.20718713244423,84.94873991957866,84.94873991957866,84.94873991957866,85.83544143394101,85.83544143394101,left,0.25746035878546536,78.59225929056993,,,S1,T-M,2023-01-25_09h39.12.492,knowing_that_K_ONLY,2022.2.5,59.9838743822355,
Does Anna know that the book is here?,Does Anna think that the book is here?,Is the book here?,late,11,mem_2,mem_K,1,1,1,no,O-B-O,O-B-X,O-X-X,M,stimuli/blue-M.png,mB-L,m0,stimuli/m0_w0_O-B-O.png,stimuli/mW-R_w0_O-B-O.png,stimuli/mB-L_w0_O-B-O.png,stimuli/mB-L_w0_O-B-X.png,stimuli/mB-L_w0_O-X-X.png,stimuli/mW-L_w0_O-X-X.png,stimuli/m0_wW-R_O-X-X.png,stimuli/m0_none_O-X-X.png,stimuli/m0_none_O-X-X.png,stimuli/m0_wW-L_O-X-X.png,0,8,8,10,,,,,,,,,86.11894429003587,92.79058457282372,93.53273790236562,93.53273790236562,93.53273790236562,94.41894088953268,94.41894088953268,left,0.3149574827984907,87.17464427807136,,,S1,T-M,2023-01-25_09h39.12.492,knowing_that_K_ONLY,2022.2.5,59.9838743822355,
Does Anna know that the book is here?,Does Anna think that the book is here?,Is the book here?,late,5,per_5,per_K,1,1,1,no,X-B-O,O-B-O,X-B-O,M,stimuli/blue-M.png,mB-L,m0,stimuli/m0_w0_X-B-O.png,stimuli/mW-R_w0_X-B-O.png,stimuli/mB-L_w0_X-B-O.png,stimuli/mB-L_w0_O-B-O.png,stimuli/mB-L_w0_X-B-O.png,stimuli/mW-L_w0_X-B-O.png,stimuli/m0_wW-R_X-B-O.png,stimuli/m0_none_X-B-O.png,stimuli/m0_none_X-B-O.png,stimuli/m0_wW-L_X-B-O.png,0,9,9,4,,,,,,,,,94.7520975676016,101.42731094942428,102.16701430972898,102.16701430972898,102.16701430972898,103.05217500933213,103.05217500933213,left,0.4242077607777901,95.81083138549002,,,S1,T-M,2023-01-25_09h39.12.492,knowing_that_K_ONLY,2022.2.5,59.9838743822355,
Does Anna know that the book is here?,Does Anna think that the book is here?,Is the book here?,early,19,no_1,no_K,0,0,0,no,X-X-X,O-X-X,X-X-X,L,stimuli/blue-L.png,mB-L,m0,stimuli/m0_w0_X-X-X.png,stimuli/m0_wW-R_X-X-X.png,stimuli/m0_none_X-X-X.png,stimuli/mW-R_none_X-X-X.png,stimuli/mB-L_none_X-X-X.png,stimuli/mB-L_none_O-X-X.png,stimuli/mB-L_none_X-X-X.png,stimuli/mW-L_none_X-X-X.png,stimuli/m0_none_X-X-X.png,stimuli/m0_wW-L_X-X-X.png,0,10,10,18,,,,,,,,,103.50212884583743,110.17523680039449,110.89245093805948,110.89245093805948,110.89245093805948,111.80228777142474,111.80228777142474,right,0.6898188158520497,104.56227740307804,,,S1,T-M,2023-01-25_09h39.12.492,knowing_that_K_ONLY,2022.2.5,59.9838743822355,
Does Anna know that the book is here?,Does Anna think that the book is here?,Is the book here?,early,23,no_5,no_K,0,0,0,no,X-O-X,X-O-O,X-O-X,R,stimuli/blue-R.png,mB-R,m0,stimuli/m0_w0_X-O-X.png,stimuli/m0_wW-R_X-O-X.png,stimuli/m0_none_X-O-X.png,stimuli/mW-R_none_X-O-X.png,stimuli/mB-R_none_X-O-X.png,stimuli/mB-R_none_X-O-O.png,stimuli/mB-R_none_X-O-X.png,stimuli/mW-L_none_X-O-X.png,stimuli/m0_none_X-O-X.png,stimuli/m0_wW-L_X-O-X.png,0,11,11,22,,,,,,,,,112.51880608830834,119.19351292285137,119.92881647590548,119.92881647590548,119.92881647590548,120.81868495326489,120.81868495326489,right,0.4108873963705264,113.58120667957701,,,S1,T-M,2023-01-25_09h39.12.492,knowing_that_K_ONLY,2022.2.5,59.9838743822355,
Does Anna know that the book is here?,Does Anna think that the book is here?,Is the book here?,early,3,per_3,per_K,1,1,1,no,O-B-X,O-B-O,O-B-X,M,stimuli/blue-M.png,mB-R,m0,stimuli/m0_w0_O-B-X.png,stimuli/m0_wW-R_O-B-X.png,stimuli/m0_none_O-B-X.png,stimuli/mW-R_none_O-B-X.png,stimuli/mB-R_none_O-B-X.png,stimuli/mB-R_none_O-B-O.png,stimuli/mB-R_none_O-B-X.png,stimuli/mW-L_none_O-B-X.png,stimuli/m0_none_O-B-X.png,stimuli/m0_wW-L_O-B-X.png,0,12,12,2,,,,,,,,,121.25230031483807,127.92947700840887,128.66923137626145,128.66923137626145,128.66923137626145,129.55227798694978,129.55227798694978,left,0.35582355986116454,122.30898869555676,,,S1,T-M,2023-01-25_09h39.12.492,knowing_that_K_ONLY,2022.2.5,59.9838743822355,
Does Anna know that the book is here?,Does Anna think that the book is here?,Is the book here?,late,13,mem_4,mem_K,1,1,1,no,B-X-O,B-X-O,X-X-O,L,stimuli/blue-L.png,mB-M,m0,stimuli/m0_w0_B-X-O.png,stimuli/mW-R_w0_B-X-O.png,stimuli/mB-M_w0_B-X-O.png,stimuli/mB-M_w0_B-X-O.png,stimuli/mB-M_w0_X-X-O.png,stimuli/mW-L_w0_X-X-O.png,stimuli/m0_wW-R_X-X-O.png,stimuli/m0_none_X-X-O.png,stimuli/m0_none_X-X-O.png,stimuli/m0_wW-L_X-X-O.png,0,13,13,12,,,,,,,,,129.93549815181177,136.60956851410447,137.35111745155882,137.35111745155882,137.35111745155882,138.2357186715235,138.2357186715235,right,0.8981935594347306,130.9916110127233,,,S1,T-M,2023-01-25_09h39.12.492,knowing_that_K_ONLY,2022.2.5,59.9838743822355,
Does Anna know that the book is here?,Does Anna think that the book is here?,Is the book here?,late,15,mem_6,mem_K,1,1,1,no,X-B-O,X-B-X,X-X-X,M,stimuli/blue-M.png,mB-R,m0,stimuli/m0_w0_X-B-O.png,stimuli/mW-R_w0_X-B-O.png,stimuli/mB-R_w0_X-B-O.png,stimuli/mB-R_w0_X-B-X.png,stimuli/mB-R_w0_X-X-X.png,stimuli/mW-L_w0_X-X-X.png,stimuli/m0_wW-R_X-X-X.png,stimuli/m0_none_X-X-X.png,stimuli/m0_none_X-X-X.png,stimuli/m0_wW-L_X-X-X.png,0,14,14,14,,,,,,,,,139.15225450420985,145.82633096171776,146.56192708667368,146.56192708667368,146.56192708667368,147.45244358526543,147.45244358526543,left,0.29693800234235823,140.21087539964356,,,S1,T-M,2023-01-25_09h39.12.492,knowing_that_K_ONLY,2022.2.5,59.9838743822355,
Does Anna know that the book is here?,Does Anna think that the book is here?,Is the book here?,late,12,mem_3,mem_K,1,1,1,no,X-O-B,X-O-B,X-O-X,R,stimuli/blue-R.png,mB-M,m0,stimuli/m0_w0_X-O-B.png,stimuli/mW-R_w0_X-O-B.png,stimuli/mB-M_w0_X-O-B.png,stimuli/mB-M_w0_X-O-B.png,stimuli/mB-M_w0_X-O-X.png,stimuli/mW-L_w0_X-O-X.png,stimuli/m0_wW-R_X-O-X.png,stimuli/m0_none_X-O-X.png,stimuli/m0_none_X-O-X.png,stimuli/m0_wW-L_X-O-X.png,0,15,15,11,,,,,,,,,147.76884089538362,154.44239540712442,155.18546366557712,155.18546366557712,155.18546366557712,156.06908066320466,156.06908066320466,left,0.35180871572811157,148.83225426037097,,,S1,T-M,2023-01-25_09h39.12.492,knowing_that_K_ONLY,2022.2.5,59.9838743822355,
Does Anna know that the book is here?,Does Anna think that the book is here?,Is the book here?,late,16,mem_7,mem_K,1,1,1,switch,B-X-O,O-X-B,O-X-X,R,stimuli/blue-R.png,mB-M,m0,stimuli/m0_w0_B-X-O.png,stimuli/mW-R_w0_B-X-O.png,stimuli/mB-M_w0_B-X-O.png,stimuli/mB-M_w0_O-X-B.png,stimuli/mB-M_w0_O-X-X.png,stimuli/mW-L_w0_O-X-X.png,stimuli/m0_wW-R_O-X-X.png,stimuli/m0_none_O-X-X.png,stimuli/m0_none_O-X-X.png,stimuli/m0_wW-L_O-X-X.png,0,16,16,15,,,,,,,,,156.45214395562652,163.1245711671654,163.8653004540247,163.8653004540247,163.8653004540247,164.75222460541409,164.75222460541409,left,0.4288879494415596,157.51444830617402,,,S1,T-M,2023-01-25_09h39.12.492,knowing_that_K_ONLY,2022.2.5,59.9838743822355,
Does Anna know that the book is here?,Does Anna think that the book is here?,Is the book here?,early,22,no_4,no_K,0,0,0,no,O-X-X,O-O-X,O-X-X,M,stimuli/blue-M.png,mB-M,m0,stimuli/m0_w0_O-X-X.png,stimuli/m0_wW-R_O-X-X.png,stimuli/m0_none_O-X-X.png,stimuli/mW-R_none_O-X-X.png,stimuli/mB-M_none_O-X-X.png,stimuli/mB-M_none_O-O-X.png,stimuli/mB-M_none_O-X-X.png,stimuli/mW-L_none_O-X-X.png,stimuli/m0_none_O-X-X.png,stimuli/m0_wW-L_O-X-X.png,0,17,17,21,,,,,,,,,165.20227564510424,171.87702193838777,172.6133520596195,172.6133520596195,172.6133520596195,173.50223567307694,173.50223567307694,right,1.0379075704258867,166.2547066549305,,,S1,T-M,2023-01-25_09h39.12.492,knowing_that_K_ONLY,2022.2.5,59.9838743822355,
Does Anna know that the book is here?,Does Anna think that the book is here?,Is the book here?,late,14,mem_5,mem_K,1,1,1,no,O-B-X,O-B-X,O-X-X,M,stimuli/blue-M.png,mB-L,m0,stimuli/m0_w0_O-B-X.png,stimuli/mW-R_w0_O-B-X.png,stimuli/mB-L_w0_O-B-X.png,stimuli/mB-L_w0_O-B-X.png,stimuli/mB-L_w0_O-X-X.png,stimuli/mW-L_w0_O-X-X.png,stimuli/m0_wW-R_O-X-X.png,stimuli/m0_none_O-X-X.png,stimuli/m0_none_O-X-X.png,stimuli/m0_wW-L_O-X-X.png,0,18,18,13,,,,,,,,,174.56891063787043,181.23713020281866,181.98064854729455,181.98064854729455,181.98064854729455,182.8690936236526,182.8690936236526,left,0.17559218424139544,175.62298704404384,,,S1,T-M,2023-01-25_09h39.12.492,knowing_that_K_ONLY,2022.2.5,59.9838743822355,
Does Anna know that the book is here?,Does Anna think that the book is here?,Is the book here?,early,27,no_9,no_K,0,0,0,hide,X-X-B,O-O-B,X-X-O,L,stimuli/blue-L.png,mB-M,m0,stimuli/m0_w0_X-X-B.png,stimuli/m0_wW-R_X-X-B.png,stimuli/m0_none_X-X-B.png,stimuli/mW-R_none_X-X-B.png,stimuli/mB-M_none_X-X-B.png,stimuli/mB-M_none_O-O-B.png,stimuli/mB-M_none_X-X-O.png,stimuli/mW-L_none_X-X-O.png,stimuli/m0_none_X-X-O.png,stimuli/m0_wW-L_X-X-O.png,0,19,19,26,,,,,,,,,183.06908964569448,189.74425875674933,190.48108900920488,190.48108900920488,190.48108900920488,191.3690820747288,191.3690820747288,right,0.4277494210982695,184.12673369725235,,,S1,T-M,2023-01-25_09h39.12.492,knowing_that_K_ONLY,2022.2.5,59.9838743822355,
Does Anna know that the book is here?,Does Anna think that the book is here?,Is the book here?,early,25,no_7,no_K,0,0,0,hide,B-X-X,B-O-O,O-X-X,M,stimuli/blue-M.png,mB-L,m0,stimuli/m0_w0_B-X-X.png,stimuli/m0_wW-R_B-X-X.png,stimuli/m0_none_B-X-X.png,stimuli/mW-R_none_B-X-X.png,stimuli/mB-L_none_B-X-X.png,stimuli/mB-L_none_B-O-O.png,stimuli/mB-L_none_O-X-X.png,stimuli/mW-L_none_O-X-X.png,stimuli/m0_none_O-X-X.png,stimuli/m0_wW-L_O-X-X.png,0,20,20,24,,,,,,,,,191.8190198711236,198.48959701420972,199.22683628991945,199.22683628991945,199.22683628991945,200.1189622550155,200.1189622550155,right,0.43722945789340883,192.88197256368585,,,S1,T-M,2023-01-25_09h39.12.492,knowing_that_K_ONLY,2022.2.5,59.9838743822355,
Does Anna know that the book is here?,Does Anna think that the book is here?,Is the book here?,late,10,mem_1,mem_K,1,1,1,no,O-X-B,X-X-B,X-X-X,R,stimuli/blue-R.png,mB-M,m0,stimuli/m0_w0_O-X-B.png,stimuli/mW-R_w0_O-X-B.png,stimuli/mB-M_w0_O-X-B.png,stimuli/mB-M_w0_X-X-B.png,stimuli/mB-M_w0_X-X-X.png,stimuli/mW-L_w0_X-X-X.png,stimuli/m0_wW-R_X-X-X.png,stimuli/m0_none_X-X-X.png,stimuli/m0_none_X-X-X.png,stimuli/m0_wW-L_X-X-X.png,0,21,21,9,,,,,,,,,200.58559205074562,207.25810523732798,207.9948575347662,207.9948575347662,207.9948575347662,208.88567270053318,208.88567270053318,left,0.5351162672159262,201.64877155068098,,,S1,T-M,2023-01-25_09h39.12.492,knowing_that_K_ONLY,2022.2.5,59.9838743822355,
Does Anna know that the book is here?,Does Anna think that the book is here?,Is the book here?,early,20,no_2,no_K,0,0,0,no,X-O-X,O-O-X,X-O-X,L,stimuli/blue-L.png,mB-L,m0,stimuli/m0_w0_X-O-X.png,stimuli/m0_wW-R_X-O-X.png,stimuli/m0_none_X-O-X.png,stimuli/mW-R_none_X-O-X.png,stimuli/mB-L_none_X-O-X.png,stimuli/mB-L_none_O-O-X.png,stimuli/mB-L_none_X-O-X.png,stimuli/mW-L_none_X-O-X.png,stimuli/m0_none_X-O-X.png,stimuli/m0_wW-L_X-O-X.png,0,22,22,19,,,,,,,,,209.45230628171703,216.12595639267238,216.86697760986863,216.86697760986863,216.86697760986863,217.7524267110275,217.7524267110275,right,0.6448406914132647,210.50618058233522,,,S1,T-M,2023-01-25_09h39.12.492,knowing_that_K_ONLY,2022.2.5,59.9838743822355,
Does Anna know that the book is here?,Does Anna think that the book is here?,Is the book here?,early,8,per_8,per_K,1,1,1,switch,O-X-B,B-X-O,B-X-X,L,stimuli/blue-L.png,mB-L,m0,stimuli/m0_w0_O-X-B.png,stimuli/m0_wW-R_O-X-B.png,stimuli/m0_none_O-X-B.png,stimuli/mW-R_none_O-X-B.png,stimuli/mB-L_none_O-X-B.png,stimuli/mB-L_none_B-X-O.png,stimuli/mB-L_none_B-X-X.png,stimuli/mW-L_none_B-X-X.png,stimuli/m0_none_B-X-X.png,stimuli/m0_wW-L_B-X-X.png,0,23,23,7,,,,,,,,,218.4191208597622,225.09287041949574,225.80909103155136,225.80909103155136,225.80909103155136,226.7188704413129,226.7188704413129,left,0.47062789276242256,219.4797458088724,,,S1,T-M,2023-01-25_09h39.12.492,knowing_that_K_ONLY,2022.2.5,59.9838743822355,
Does Anna know that the book is here?,Does Anna think that the book is here?,Is the book here?,early,24,no_6,no_K,0,0,0,no,X-X-X,X-X-O,X-X-X,R,stimuli/blue-R.png,mB-R,m0,stimuli/m0_w0_X-X-X.png,stimuli/m0_wW-R_X-X-X.png,stimuli/m0_none_X-X-X.png,stimuli/mW-R_none_X-X-X.png,stimuli/mB-R_none_X-X-X.png,stimuli/mB-R_none_X-X-O.png,stimuli/mB-R_none_X-X-X.png,stimuli/mW-L_none_X-X-X.png,stimuli/m0_none_X-X-X.png,stimuli/m0_wW-L_X-X-X.png,0,24,24,23,,,,,,,,,227.2181630716077,233.89460929774214,234.63031160837272,234.63031160837272,234.63031160837272,235.50233512191335,235.50233512191335,right,0.4066534440498799,228.27437858935446,,,S1,T-M,2023-01-25_09h39.12.492,knowing_that_K_ONLY,2022.2.5,59.9838743822355,
Does Anna know that the book is here?,Does Anna think that the book is here?,Is the book here?,early,21,no_3,no_K,0,0,0,no,X-X-O,X-O-O,X-X-O,M,stimuli/blue-M.png,mB-M,m0,stimuli/m0_w0_X-X-O.png,stimuli/m0_wW-R_X-X-O.png,stimuli/m0_none_X-X-O.png,stimuli/mW-R_none_X-X-O.png,stimuli/mB-M_none_X-X-O.png,stimuli/mB-M_none_X-O-O.png,stimuli/mB-M_none_X-X-O.png,stimuli/mW-L_none_X-X-O.png,stimuli/m0_none_X-X-O.png,stimuli/m0_wW-L_X-X-O.png,0,25,25,20,,,,,,,,,235.9356665731757,242.61036955815507,243.35236024070764,243.35236024070764,243.35236024070764,244.2356808168115,244.2356808168115,right,0.7534172839368694,236.99863370181993,,,S1,T-M,2023-01-25_09h39.12.492,knowing_that_K_ONLY,2022.2.5,59.9838743822355,
Does Anna know that the book is here?,Does Anna think that the book is here?,Is the book here?,early,7,per_7,per_K,1,1,1,switch,B-X-O,O-X-B,X-X-B,R,stimuli/blue-R.png,mB-R,m0,stimuli/m0_w0_B-X-O.png,stimuli/m0_wW-R_B-X-O.png,stimuli/m0_none_B-X-O.png,stimuli/mW-R_none_B-X-O.png,stimuli/mB-R_none_B-X-O.png,stimuli/mB-R_none_O-X-B.png,stimuli/mB-R_none_X-X-B.png,stimuli/mW-L_none_X-X-B.png,stimuli/m0_none_X-X-B.png,stimuli/m0_wW-L_X-X-B.png,0,26,26,6,,,,,,,,,245.01906240952667,251.69535047997488,252.43336802278645,252.43336802278645,252.43336802278645,253.3190182670951,253.3190182670951,left,0.2533037198591046,246.08144792314852,,,S1,T-M,2023-01-25_09h39.12.492,knowing_that_K_ONLY,2022.2.5,59.9838743822355,
Does Anna know that the book is here?,Does Anna think that the book is here?,Is the book here?,early,9,per_9,per_K,1,1,1,switch,X-O-B,X-B-O,X-B-X,M,stimuli/blue-M.png,mB-R,m0,stimuli/m0_w0_X-O-B.png,stimuli/m0_wW-R_X-O-B.png,stimuli/m0_none_X-O-B.png,stimuli/mW-R_none_X-O-B.png,stimuli/mB-R_none_X-O-B.png,stimuli/mB-R_none_X-B-O.png,stimuli/mB-R_none_X-B-X.png,stimuli/mW-L_none_X-B-X.png,stimuli/m0_none_X-B-X.png,stimuli/m0_wW-L_X-B-X.png,0,27,27,8,,,,,,,,,253.6026273088646,260.2769158168812,261.0161963593564,261.0161963593564,261.0161963593564,261.90250136179384,261.90250136179384,left,0.5904855077969842,254.660843030666,,,S1,T-M,2023-01-25_09h39.12.492,knowing_that_K_ONLY,2022.2.5,59.9838743822355,
