K_text,B_text,T_text,Anna_exit,trial_num,trial_code,cond,K_hit,B_hit,T_hit,book_move,start_shelf,mid_shelf,mid_shelf_2,end_shelf,rectangle,rectangle_B,rectangle_T,rectangle_path,rectangle_path_B,rectangle_path_T,Todd_mid,Todd_final,frame_1,frame_2,frame_3,frame_4,frame_5,frame_6,frame_7,frame_8,frame_9,frame_10,trials.thisRepN,trials.thisTrialN,trials.thisN,trials.thisIndex,frames.thisRepN,frames.thisTrialN,frames.thisN,frames.thisIndex,sessionInst.started,startSession.started,startSession.keys,startSession.rt,crossText.started,movingImage.started,staticImage.started,promptText3.started,rectImage.started,respText.started,keyResp.started,keyResp.keys,keyResp.rt,crossText.stopped,subject,session,date,expName,psychopyVersion,frameRate,
,,,,,,,,,,,,,,,,,,,,,,,,,,,,,,,,,,,,,,,,,26.223614790593274,26.223614790593274,left,33.35003539198078,,,,,,,,,,,S2,B-A,2023-01-25_13h21.51.733,knowing_that_K_ONLY,2022.2.5,59.98791461280637,
Does Anna know that the book is here?,Does Anna think that the book is here?,Is the book here?,early,41,mem_1,mem_K,0,1,0,switch,O-O-X,O-O-B,O-B-X,O-X-X,M,R,R,stimuli/blue-M.png,stimuli/blue-R.png,stimuli/blue-R.png,mB-L,m0,stimuli/m0_w0_O-O-X.png,stimuli/m0_wW-R_O-O-X.png,stimuli/m0_none_O-O-X.png,stimuli/mW-R_none_O-O-X.png,stimuli/mB-L_none_O-O-B.png,stimuli/mB-L_none_O-B-X.png,stimuli/mB-L_none_O-X-X.png,stimuli/mW-L_none_O-X-X.png,stimuli/m0_none_O-X-X.png,stimuli/m0_wW-L_O-X-X.png,0,0,0,12,,,,,,,,,59.63669590034988,66.2745194217423,67.02688678435516,67.02688678435516,67.02688678435516,67.90010240022093,67.90010240022093,right,1.1529493702109903,,S2,B-A,2023-01-25_13h21.51.733,knowing_that_K_ONLY,2022.2.5,59.98791461280637,
Does Anna know that the book is here?,Does Anna think that the book is here?,Is the book here?,late,50,mem_10,mem_K,1,1,1,show,O-O-X,O-O-B,O-B-X,O-X-X,M,M,M,stimuli/blue-M.png,stimuli/blue-M.png,stimuli/blue-M.png,mB-L,m0,stimuli/m0_w0_O-O-X.png,stimuli/mW-R_w0_O-O-X.png,stimuli/mB-L_w0_O-O-B.png,stimuli/mB-L_w0_O-B-X.png,stimuli/mB-L_w0_O-X-X.png,stimuli/mW-L_w0_O-X-X.png,stimuli/m0_wW-R_O-X-X.png,stimuli/m0_none_O-X-X.png,stimuli/m0_none_O-X-X.png,stimuli/m0_wW-L_O-X-X.png,0,1,1,21,,,,,,,,,69.08344203198794,75.73236917192116,76.49839694960974,76.49839694960974,76.49839694960974,77.38361058162991,77.38361058162991,left,0.5104254494654015,70.13323957344983,S2,B-A,2023-01-25_13h21.51.733,knowing_that_K_ONLY,2022.2.5,59.98791461280637,
Does Anna know that the book is here?,Does Anna think that the book is here?,Is the book here?,late,52,mem_12,mem_K,1,1,1,show,X-O-O,B-O-O,X-O-B,X-O-X,R,R,R,stimuli/blue-R.png,stimuli/blue-R.png,stimuli/blue-R.png,mB-M,m0,stimuli/m0_w0_X-O-O.png,stimuli/mW-R_w0_X-O-O.png,stimuli/mB-M_w0_B-O-O.png,stimuli/mB-M_w0_X-O-B.png,stimuli/mB-M_w0_X-O-X.png,stimuli/mW-L_w0_X-O-X.png,stimuli/m0_wW-R_X-O-X.png,stimuli/m0_none_X-O-X.png,stimuli/m0_none_X-O-X.png,stimuli/m0_wW-L_X-O-X.png,0,2,2,23,,,,,,,,,77.91692657023668,84.5916536153527,85.32699245668482,85.32699245668482,85.32699245668482,86.21679998154286,86.21679998154286,left,0.2925610451493412,78.96812890621368,S2,B-A,2023-01-25_13h21.51.733,knowing_that_K_ONLY,2022.2.5,59.98791461280637,
Does Anna know that the book is here?,Does Anna think that the book is here?,Is the book here?,early,45,mem_5,mem_K,0,1,0,switch,O-X-O,O-B-O,B-X-O,X-X-O,L,M,M,stimuli/blue-L.png,stimuli/blue-M.png,stimuli/blue-M.png,mB-R,m0,stimuli/m0_w0_O-X-O.png,stimuli/m0_wW-R_O-X-O.png,stimuli/m0_none_O-X-O.png,stimuli/mW-R_none_O-X-O.png,stimuli/mB-R_none_O-B-O.png,stimuli/mB-R_none_B-X-O.png,stimuli/mB-R_none_X-X-O.png,stimuli/mW-L_none_X-X-O.png,stimuli/m0_none_X-X-O.png,stimuli/m0_wW-L_X-X-O.png,0,3,3,16,,,,,,,,,86.53340292617213,93.20707677642349,93.9477829656098,93.9477829656098,93.9477829656098,94.83351982664317,94.83351982664317,right,1.1480327498866245,87.58832208067179,S2,B-A,2023-01-25_13h21.51.733,knowing_that_K_ONLY,2022.2.5,59.98791461280637,
Does Anna know that the book is here?,Does Anna think that the book is here?,Is the book here?,early,30,per_2,per_K,1,0,1,no,X-X-B,O-X-B,none,X-X-B,R,L,R,stimuli/blue-R.png,stimuli/blue-L.png,stimuli/blue-R.png,mB-L,m0,stimuli/m0_w0_X-X-B.png,stimuli/m0_wW-R_X-X-B.png,stimuli/m0_none_X-X-B.png,stimuli/mW-R_none_X-X-B.png,stimuli/mB-L_none_X-X-B.png,stimuli/mB-L_none_O-X-B.png,stimuli/mB-L_none_X-X-B.png,stimuli/mW-L_none_X-X-B.png,stimuli/m0_none_X-X-B.png,stimuli/m0_wW-L_X-X-B.png,0,4,4,1,,,,,,,,,96.00012447149493,102.67522043955978,103.411966962507,103.411966962507,103.411966962507,104.30013743182644,104.30013743182644,right,0.2485235136700794,97.06017422152217,S2,B-A,2023-01-25_13h21.51.733,knowing_that_K_ONLY,2022.2.5,59.98791461280637,
Does Anna know that the book is here?,Does Anna think that the book is here?,Is the book here?,early,42,mem_2,mem_K,0,1,0,switch,O-O-X,O-O-B,B-O-X,X-O-X,L,R,R,stimuli/blue-L.png,stimuli/blue-R.png,stimuli/blue-R.png,mB-M,m0,stimuli/m0_w0_O-O-X.png,stimuli/m0_wW-R_O-O-X.png,stimuli/m0_none_O-O-X.png,stimuli/mW-R_none_O-O-X.png,stimuli/mB-M_none_O-O-B.png,stimuli/mB-M_none_B-O-X.png,stimuli/mB-M_none_X-O-X.png,stimuli/mW-L_none_X-O-X.png,stimuli/m0_none_X-O-X.png,stimuli/m0_wW-L_X-O-X.png,0,5,5,13,,,,,,,,,104.56696272466797,111.23824306705501,111.98060940939467,111.98060940939467,111.98060940939467,112.86650442611426,112.86650442611426,left,0.39537698589265347,105.63117103849072,S2,B-A,2023-01-25_13h21.51.733,knowing_that_K_ONLY,2022.2.5,59.98791461280637,
Does Anna know that the book is here?,Does Anna think that the book is here?,Is the book here?,early,49,mem_9,mem_K,0,1,0,switch,X-O-O,B-O-O,X-B-O,X-X-O,M,L,L,stimuli/blue-M.png,stimuli/blue-L.png,stimuli/blue-L.png,mB-R,m0,stimuli/m0_w0_X-O-O.png,stimuli/m0_wW-R_X-O-O.png,stimuli/m0_none_X-O-O.png,stimuli/mW-R_none_X-O-O.png,stimuli/mB-R_none_B-O-O.png,stimuli/mB-R_none_X-B-O.png,stimuli/mB-R_none_X-X-O.png,stimuli/mW-L_none_X-X-O.png,stimuli/m0_none_X-X-O.png,stimuli/m0_wW-L_X-X-O.png,0,6,6,20,,,,,,,,,113.283326414763,119.95828443777282,120.69662278308533,120.69662278308533,120.69662278308533,121.58345646806993,121.58345646806993,left,0.2540884759509936,114.33336808695458,S2,B-A,2023-01-25_13h21.51.733,knowing_that_K_ONLY,2022.2.5,59.98791461280637,
Does Anna know that the book is here?,Does Anna think that the book is here?,Is the book here?,late,33,per_5,per_K,1,0,1,no,X-B-O,O-B-O,none,X-B-O,M,R,M,stimuli/blue-M.png,stimuli/blue-R.png,stimuli/blue-M.png,mB-L,m0,stimuli/m0_w0_X-B-O.png,stimuli/mW-R_w0_X-B-O.png,stimuli/mB-L_w0_X-B-O.png,stimuli/mB-L_w0_O-B-O.png,stimuli/mB-L_w0_X-B-O.png,stimuli/mW-L_w0_X-B-O.png,stimuli/m0_wW-R_X-B-O.png,stimuli/m0_none_X-B-O.png,stimuli/m0_none_X-B-O.png,stimuli/m0_wW-L_X-B-O.png,0,7,7,4,,,,,,,,,121.86652976961341,128.54194589867257,129.27827409503516,129.27827409503516,129.27827409503516,130.16685615410097,130.16685615410097,right,0.15919860429130495,122.91068278986495,S2,B-A,2023-01-25_13h21.51.733,knowing_that_K_ONLY,2022.2.5,59.98791461280637,
Does Anna know that the book is here?,Does Anna think that the book is here?,Is the book here?,early,35,per_7,per_K,1,0,1,switch,B-X-O,O-X-B,none,X-X-B,R,L,R,stimuli/blue-R.png,stimuli/blue-L.png,stimuli/blue-R.png,mB-R,m0,stimuli/m0_w0_B-X-O.png,stimuli/m0_wW-R_B-X-O.png,stimuli/m0_none_B-X-O.png,stimuli/mW-R_none_B-X-O.png,stimuli/mB-R_none_B-X-O.png,stimuli/mB-R_none_O-X-B.png,stimuli/mB-R_none_X-X-B.png,stimuli/mW-L_none_X-X-B.png,stimuli/m0_none_X-X-B.png,stimuli/m0_wW-L_X-X-B.png,0,8,8,6,,,,,,,,,130.35018263291568,137.02519679639954,137.76206907397136,137.76206907397136,137.76206907397136,138.65038486686535,138.65038486686535,right,0.5706028789281845,131.40622074680869,S2,B-A,2023-01-25_13h21.51.733,knowing_that_K_ONLY,2022.2.5,59.98791461280637,
Does Anna know that the book is here?,Does Anna think that the book is here?,Is the book here?,early,46,mem_6,mem_K,0,1,0,switch,O-X-O,O-B-O,O-X-B,O-X-X,R,M,M,stimuli/blue-R.png,stimuli/blue-M.png,stimuli/blue-M.png,mB-L,m0,stimuli/m0_w0_O-X-O.png,stimuli/m0_wW-R_O-X-O.png,stimuli/m0_none_O-X-O.png,stimuli/mW-R_none_O-X-O.png,stimuli/mB-L_none_O-B-O.png,stimuli/mB-L_none_O-X-B.png,stimuli/mB-L_none_O-X-X.png,stimuli/mW-L_none_O-X-X.png,stimuli/m0_none_O-X-X.png,stimuli/m0_wW-L_O-X-X.png,0,9,9,17,,,,,,,,,139.25014355918393,145.9245850900188,146.66405907645822,146.66405907645822,146.66405907645822,147.5503704949515,147.5503704949515,right,0.9676996798953041,140.31243251124397,S2,B-A,2023-01-25_13h21.51.733,knowing_that_K_ONLY,2022.2.5,59.98791461280637,
Does Anna know that the book is here?,Does Anna think that the book is here?,Is the book here?,late,39,per_11,per_K,1,1,1,show,X-X-O,X-B-O,none,X-B-O,M,M,M,stimuli/blue-M.png,stimuli/blue-M.png,stimuli/blue-M.png,mB-M,m0,stimuli/m0_w0_X-X-O.png,stimuli/mW-R_w0_X-X-O.png,stimuli/mB-M_w0_X-X-O.png,stimuli/mB-M_w0_X-B-O.png,stimuli/mB-M_w0_X-B-O.png,stimuli/mW-L_w0_X-B-O.png,stimuli/m0_wW-R_X-B-O.png,stimuli/m0_none_X-B-O.png,stimuli/m0_none_X-B-O.png,stimuli/m0_wW-L_X-B-O.png,0,10,10,10,,,,,,,,,148.55027008370962,155.2253487284761,155.9649160684785,155.9649160684785,155.9649160684785,156.85030453791842,156.85030453791842,left,0.05935008719097823,149.61293341231067,S2,B-A,2023-01-25_13h21.51.733,knowing_that_K_ONLY,2022.2.5,59.98791461280637,
Does Anna know that the book is here?,Does Anna think that the book is here?,Is the book here?,late,40,per_12,per_K,1,1,1,show,O-X-X,O-B-X,none,O-B-X,M,M,M,stimuli/blue-M.png,stimuli/blue-M.png,stimuli/blue-M.png,mB-M,m0,stimuli/m0_w0_O-X-X.png,stimuli/mW-R_w0_O-X-X.png,stimuli/mB-M_w0_O-X-X.png,stimuli/mB-M_w0_O-B-X.png,stimuli/mB-M_w0_O-B-X.png,stimuli/mW-L_w0_O-B-X.png,stimuli/m0_wW-R_O-B-X.png,stimuli/m0_none_O-B-X.png,stimuli/m0_none_O-B-X.png,stimuli/m0_wW-L_O-B-X.png,0,11,11,11,,,,,,,,,156.93366284039803,163.60432210890576,164.34917980409227,164.34917980409227,164.34917980409227,165.2335378556745,165.2335378556745,left,0.41987058299127966,157.98479844944086,S2,B-A,2023-01-25_13h21.51.733,knowing_that_K_ONLY,2022.2.5,59.98791461280637,
Does Anna know that the book is here?,Does Anna think that the book is here?,Is the book here?,early,37,per_9,per_K,1,0,1,switch,X-O-B,X-B-O,none,X-B-X,M,R,M,stimuli/blue-M.png,stimuli/blue-R.png,stimuli/blue-M.png,mB-R,m0,stimuli/m0_w0_X-O-B.png,stimuli/m0_wW-R_X-O-B.png,stimuli/m0_none_X-O-B.png,stimuli/mW-R_none_X-O-B.png,stimuli/mB-R_none_X-O-B.png,stimuli/mB-R_none_X-B-O.png,stimuli/mB-R_none_X-B-X.png,stimuli/mW-L_none_X-B-X.png,stimuli/m0_none_X-B-X.png,stimuli/m0_wW-L_X-B-X.png,0,12,12,8,,,,,,,,,165.68369283538777,172.35851804621052,173.09635658108164,173.09635658108164,173.09635658108164,173.9837083623279,173.9837083623279,right,0.11711443972308189,166.73728900018614,S2,B-A,2023-01-25_13h21.51.733,knowing_that_K_ONLY,2022.2.5,59.98791461280637,
Does Anna know that the book is here?,Does Anna think that the book is here?,Is the book here?,early,48,mem_8,mem_K,0,1,0,switch,X-O-O,B-O-O,X-B-O,X-X-O,M,L,L,stimuli/blue-M.png,stimuli/blue-L.png,stimuli/blue-L.png,mB-R,m0,stimuli/m0_w0_X-O-O.png,stimuli/m0_wW-R_X-O-O.png,stimuli/m0_none_X-O-O.png,stimuli/mW-R_none_X-O-O.png,stimuli/mB-R_none_B-O-O.png,stimuli/mB-R_none_X-B-O.png,stimuli/mB-R_none_X-X-O.png,stimuli/mW-L_none_X-X-O.png,stimuli/m0_none_X-X-O.png,stimuli/m0_wW-L_X-X-O.png,0,13,13,19,,,,,,,,,174.1171465124935,180.79038150492124,181.52925944013987,181.52925944013987,181.52925944013987,182.41709691646975,182.41709691646975,left,0.26089173613581806,175.17399786098395,S2,B-A,2023-01-25_13h21.51.733,knowing_that_K_ONLY,2022.2.5,59.98791461280637,
Does Anna know that the book is here?,Does Anna think that the book is here?,Is the book here?,late,32,per_4,per_K,1,0,1,no,O-X-B,O-O-B,none,O-X-B,R,L,R,stimuli/blue-R.png,stimuli/blue-L.png,stimuli/blue-R.png,mB-M,m0,stimuli/m0_w0_O-X-B.png,stimuli/mW-R_w0_O-X-B.png,stimuli/mB-M_w0_O-X-B.png,stimuli/mB-M_w0_O-O-B.png,stimuli/mB-M_w0_O-X-B.png,stimuli/mW-L_w0_O-X-B.png,stimuli/m0_wW-R_O-X-B.png,stimuli/m0_none_O-X-B.png,stimuli/m0_none_O-X-B.png,stimuli/m0_wW-L_O-X-B.png,0,14,14,3,,,,,,,,,182.700272233109,189.37404360738583,190.11222123063635,190.11222123063635,190.11222123063635,191.0001825366635,191.0001825366635,right,0.020795713528059423,183.76474809623323,S2,B-A,2023-01-25_13h21.51.733,knowing_that_K_ONLY,2022.2.5,59.98791461280637,
Does Anna know that the book is here?,Does Anna think that the book is here?,Is the book here?,early,43,mem_3,mem_K,0,1,0,switch,O-O-X,O-O-B,B-O-X,X-O-X,L,R,R,stimuli/blue-L.png,stimuli/blue-R.png,stimuli/blue-R.png,mB-M,m0,stimuli/m0_w0_O-O-X.png,stimuli/m0_wW-R_O-O-X.png,stimuli/m0_none_O-O-X.png,stimuli/mW-R_none_O-O-X.png,stimuli/mB-M_none_O-O-B.png,stimuli/mB-M_none_B-O-X.png,stimuli/mB-M_none_X-O-X.png,stimuli/mW-L_none_X-O-X.png,stimuli/m0_none_X-O-X.png,stimuli/m0_wW-L_X-O-X.png,0,15,15,14,,,,,,,,,191.05020624399185,197.72422944835853,198.46156849362887,198.46156849362887,198.46156849362887,199.35028785618488,199.35028785618488,left,0.36795638606417924,192.11387111828662,S2,B-A,2023-01-25_13h21.51.733,knowing_that_K_ONLY,2022.2.5,59.98791461280637,
Does Anna know that the book is here?,Does Anna think that the book is here?,Is the book here?,early,31,per_3,per_K,1,0,1,no,O-B-X,O-B-O,none,O-B-X,M,R,M,stimuli/blue-M.png,stimuli/blue-R.png,stimuli/blue-M.png,mB-R,m0,stimuli/m0_w0_O-B-X.png,stimuli/m0_wW-R_O-B-X.png,stimuli/m0_none_O-B-X.png,stimuli/mW-R_none_O-B-X.png,stimuli/mB-R_none_O-B-X.png,stimuli/mB-R_none_O-B-O.png,stimuli/mB-R_none_O-B-X.png,stimuli/mW-L_none_O-B-X.png,stimuli/m0_none_O-B-X.png,stimuli/m0_wW-L_O-B-X.png,0,16,16,2,,,,,,,,,199.75027540908195,206.4249254615279,207.16220323357265,207.16220323357265,207.16220323357265,208.05043176817708,208.05043176817708,right,1.0917421644553542,200.81065141537692,S2,B-A,2023-01-25_13h21.51.733,knowing_that_K_ONLY,2022.2.5,59.98791461280637,
Does Anna know that the book is here?,Does Anna think that the book is here?,Is the book here?,late,38,per_10,per_K,1,1,1,show,X-X-X,X-O-X,none,X-O-B,R,R,R,stimuli/blue-R.png,stimuli/blue-R.png,stimuli/blue-R.png,mB-R,m0,stimuli/m0_w0_X-X-X.png,stimuli/mW-R_w0_X-X-X.png,stimuli/mB-R_w0_X-X-X.png,stimuli/mB-R_w0_X-O-X.png,stimuli/mB-R_w0_X-O-B.png,stimuli/mW-L_w0_X-O-B.png,stimuli/m0_wW-R_X-O-B.png,stimuli/m0_none_X-O-B.png,stimuli/m0_none_X-O-B.png,stimuli/m0_wW-L_X-O-B.png,0,17,17,9,,,,,,,,,209.16697837982792,215.84078440081794,216.57692011573818,216.57692011573818,216.57692011573818,217.4670737865381,217.4670737865381,left,0.6184332590783015,210.22014178195968,S2,B-A,2023-01-25_13h21.51.733,knowing_that_K_ONLY,2022.2.5,59.98791461280637,
Does Anna know that the book is here?,Does Anna think that the book is here?,Is the book here?,early,44,mem_4,mem_K,0,1,0,switch,O-X-O,O-B-O,O-X-B,O-X-X,R,M,M,stimuli/blue-R.png,stimuli/blue-M.png,stimuli/blue-M.png,mB-L,m0,stimuli/m0_w0_O-X-O.png,stimuli/m0_wW-R_O-X-O.png,stimuli/m0_none_O-X-O.png,stimuli/mW-R_none_O-X-O.png,stimuli/mB-L_none_O-B-O.png,stimuli/mB-L_none_O-X-B.png,stimuli/mB-L_none_O-X-X.png,stimuli/mW-L_none_O-X-X.png,stimuli/m0_none_O-X-X.png,stimuli/m0_wW-L_O-X-X.png,0,18,18,15,,,,,,,,,218.1170005473541,224.79247794963885,225.52872883272357,225.52872883272357,225.52872883272357,226.4169195125578,226.4169195125578,right,1.0767327744979411,219.1706746671116,S2,B-A,2023-01-25_13h21.51.733,knowing_that_K_ONLY,2022.2.5,59.98791461280637,
Does Anna know that the book is here?,Does Anna think that the book is here?,Is the book here?,late,34,per_6,per_K,1,0,1,no,X-B-X,O-B-X,none,X-B-X,M,R,M,stimuli/blue-M.png,stimuli/blue-R.png,stimuli/blue-M.png,mB-L,m0,stimuli/m0_w0_X-B-X.png,stimuli/mW-R_w0_X-B-X.png,stimuli/mB-L_w0_X-B-X.png,stimuli/mB-L_w0_O-B-X.png,stimuli/mB-L_w0_X-B-X.png,stimuli/mW-L_w0_X-B-X.png,stimuli/m0_wW-R_X-B-X.png,stimuli/m0_none_X-B-X.png,stimuli/m0_none_X-B-X.png,stimuli/m0_wW-L_X-B-X.png,0,19,19,5,,,,,,,,,227.51689955871552,234.19057340896688,234.93091965757776,234.93091965757776,234.93091965757776,235.81718327652197,235.81718327652197,right,0.2525460572214797,228.57685691758525,S2,B-A,2023-01-25_13h21.51.733,knowing_that_K_ONLY,2022.2.5,59.98791461280637,
Does Anna know that the book is here?,Does Anna think that the book is here?,Is the book here?,early,36,per_8,per_K,1,0,1,switch,O-X-B,B-X-O,none,B-X-X,L,M,L,stimuli/blue-L.png,stimuli/blue-M.png,stimuli/blue-L.png,mB-L,m0,stimuli/m0_w0_O-X-B.png,stimuli/m0_wW-R_O-X-B.png,stimuli/m0_none_O-X-B.png,stimuli/mW-R_none_O-X-B.png,stimuli/mB-L_none_O-X-B.png,stimuli/mB-L_none_B-X-O.png,stimuli/mB-L_none_B-X-X.png,stimuli/mW-L_none_B-X-X.png,stimuli/m0_none_B-X-X.png,stimuli/m0_wW-L_B-X-X.png,0,20,20,7,,,,,,,,,236.1003130391473,242.77349638240412,243.48386587633286,243.48386587633286,243.48386587633286,244.40037572407164,244.40037572407164,right,0.0139023078372702,237.1638441387331,S2,B-A,2023-01-25_13h21.51.733,knowing_that_K_ONLY,2022.2.5,59.98791461280637,
Does Anna know that the book is here?,Does Anna think that the book is here?,Is the book here?,early,29,per_1,per_K,1,0,1,no,B-X-X,B-O-X,none,B-X-X,L,M,L,stimuli/blue-L.png,stimuli/blue-M.png,stimuli/blue-L.png,mB-M,m0,stimuli/m0_w0_B-X-X.png,stimuli/m0_wW-R_B-X-X.png,stimuli/m0_none_B-X-X.png,stimuli/mW-R_none_B-X-X.png,stimuli/mB-M_none_B-X-X.png,stimuli/mB-M_none_B-O-X.png,stimuli/mB-M_none_B-X-X.png,stimuli/mW-L_none_B-X-X.png,stimuli/m0_none_B-X-X.png,stimuli/m0_wW-L_B-X-X.png,0,21,21,0,,,,,,,,,244.4338527554646,251.08521959907375,251.8475385782076,251.8475385782076,251.8475385782076,252.73367419675924,252.73367419675924,right,0.35965850681532174,245.48564921785146,S2,B-A,2023-01-25_13h21.51.733,knowing_that_K_ONLY,2022.2.5,59.98791461280637,
Does Anna know that the book is here?,Does Anna think that the book is here?,Is the book here?,early,47,mem_7,mem_K,0,1,0,switch,X-O-O,B-O-O,X-O-B,X-O-X,R,L,L,stimuli/blue-R.png,stimuli/blue-L.png,stimuli/blue-L.png,mB-M,m0,stimuli/m0_w0_X-O-O.png,stimuli/m0_wW-R_X-O-O.png,stimuli/m0_none_X-O-O.png,stimuli/mW-R_none_X-O-O.png,stimuli/mB-M_none_B-O-O.png,stimuli/mB-M_none_X-O-B.png,stimuli/mB-M_none_X-O-X.png,stimuli/mW-L_none_X-O-X.png,stimuli/m0_none_X-O-X.png,stimuli/m0_wW-L_X-O-X.png,0,22,22,18,,,,,,,,,253.11700375541113,259.7944194468437,260.5281199493911,260.5281199493911,260.5281199493911,261.4171427912079,261.4171427912079,right,0.019944624276831746,254.16954993328545,S2,B-A,2023-01-25_13h21.51.733,knowing_that_K_ONLY,2022.2.5,59.98791461280637,
Does Anna know that the book is here?,Does Anna think that the book is here?,Is the book here?,late,51,mem_11,mem_K,1,1,1,show,O-X-O,O-B-O,O-X-B,O-X-X,R,R,R,stimuli/blue-R.png,stimuli/blue-R.png,stimuli/blue-R.png,mB-L,m0,stimuli/m0_w0_O-X-O.png,stimuli/mW-R_w0_O-X-O.png,stimuli/mB-L_w0_O-B-O.png,stimuli/mB-L_w0_O-X-B.png,stimuli/mB-L_w0_O-X-X.png,stimuli/mW-L_w0_O-X-X.png,stimuli/m0_wW-R_O-X-X.png,stimuli/m0_none_O-X-X.png,stimuli/m0_none_O-X-X.png,stimuli/m0_wW-L_O-X-X.png,0,23,23,22,,,,,,,,,261.46712415257934,268.1415246207034,268.87885757081676,268.87885757081676,268.87885757081676,269.7672108975239,269.7672108975239,left,0.33460831735283136,262.52379103947897,S2,B-A,2023-01-25_13h21.51.733,knowing_that_K_ONLY,2022.2.5,59.98791461280637,
Does Anna know that the book is here?,Does Anna think that the book is here?,Is the book here?,late,51,mem_11,mem_K,1,1,1,show,O-X-O,O-B-O,O-X-B,O-X-X,R,R,R,stimuli/blue-R.png,stimuli/blue-R.png,stimuli/blue-R.png,mB-L,m0,stimuli/m0_w0_O-X-O.png,stimuli/mW-R_w0_O-X-O.png,stimuli/mB-L_w0_O-B-O.png,stimuli/mB-L_w0_O-X-B.png,stimuli/mB-L_w0_O-X-X.png,stimuli/mW-L_w0_O-X-X.png,stimuli/m0_wW-R_O-X-X.png,stimuli/m0_none_O-X-X.png,stimuli/m0_none_O-X-X.png,stimuli/m0_wW-L_O-X-X.png,1,0,24,22,,,,,,,,,270.1339905722998,276.8054367695004,277.5456925518811,277.5456925518811,277.5456925518811,278.43376966763753,278.43376966763753,left,0.47682747547514737,271.1968912947923,S2,B-A,2023-01-25_13h21.51.733,knowing_that_K_ONLY,2022.2.5,59.98791461280637,
Does Anna know that the book is here?,Does Anna think that the book is here?,Is the book here?,early,30,per_2,per_K,1,0,1,no,X-X-B,O-X-B,none,X-X-B,R,L,R,stimuli/blue-R.png,stimuli/blue-L.png,stimuli/blue-R.png,mB-L,m0,stimuli/m0_w0_X-X-B.png,stimuli/m0_wW-R_X-X-B.png,stimuli/m0_none_X-X-B.png,stimuli/mW-R_none_X-X-B.png,stimuli/mB-L_none_X-X-B.png,stimuli/mB-L_none_O-X-B.png,stimuli/mB-L_none_X-X-B.png,stimuli/mW-L_none_X-X-B.png,stimuli/m0_none_X-X-B.png,stimuli/m0_wW-L_X-X-B.png,1,1,25,1,,,,,,,,,278.9335685244296,285.6087238410255,286.34882146760356,286.34882146760356,286.34882146760356,287.2339443125529,287.2339443125529,right,0.24300474708434194,279.9924194352934,S2,B-A,2023-01-25_13h21.51.733,knowing_that_K_ONLY,2022.2.5,59.98791461280637,
Does Anna know that the book is here?,Does Anna think that the book is here?,Is the book here?,early,35,per_7,per_K,1,0,1,switch,B-X-O,O-X-B,none,X-X-B,R,L,R,stimuli/blue-R.png,stimuli/blue-L.png,stimuli/blue-R.png,mB-R,m0,stimuli/m0_w0_B-X-O.png,stimuli/m0_wW-R_B-X-O.png,stimuli/m0_none_B-X-O.png,stimuli/mW-R_none_B-X-O.png,stimuli/mB-R_none_B-X-O.png,stimuli/mB-R_none_O-X-B.png,stimuli/mB-R_none_X-X-B.png,stimuli/mW-L_none_X-X-B.png,stimuli/m0_none_X-X-B.png,stimuli/m0_wW-L_X-X-B.png,1,2,26,6,,,,,,,,,287.5007426580414,294.1736975897802,294.91349077469204,294.91349077469204,294.91349077469204,295.80050154274795,295.80050154274795,right,0.044650271884165704,,S2,B-A,2023-01-25_13h21.51.733,knowing_that_K_ONLY,2022.2.5,59.98791461280637,
Does Anna know that the book is here?,Does Anna think that the book is here?,Is the book here?,early,48,mem_8,mem_K,0,1,0,switch,X-O-O,B-O-O,X-B-O,X-X-O,M,L,L,stimuli/blue-M.png,stimuli/blue-L.png,stimuli/blue-L.png,mB-R,m0,stimuli/m0_w0_X-O-O.png,stimuli/m0_wW-R_X-O-O.png,stimuli/m0_none_X-O-O.png,stimuli/mW-R_none_X-O-O.png,stimuli/mB-R_none_B-O-O.png,stimuli/mB-R_none_X-B-O.png,stimuli/mB-R_none_X-X-O.png,stimuli/mW-L_none_X-X-O.png,stimuli/m0_none_X-X-O.png,stimuli/m0_wW-L_X-X-O.png,1,3,27,19,,,,,,,,,295.8670985525241,302.54025911865756,303.2787848127773,303.2787848127773,303.2787848127773,304.167113437783,304.167113437783,right,0.615172621794045,296.9207649730379,S2,B-A,2023-01-25_13h21.51.733,knowing_that_K_ONLY,2022.2.5,59.98791461280637,
Does Anna know that the book is here?,Does Anna think that the book is here?,Is the book here?,early,31,per_3,per_K,1,0,1,no,O-B-X,O-B-O,none,O-B-X,M,R,M,stimuli/blue-M.png,stimuli/blue-R.png,stimuli/blue-M.png,mB-R,m0,stimuli/m0_w0_O-B-X.png,stimuli/m0_wW-R_O-B-X.png,stimuli/m0_none_O-B-X.png,stimuli/mW-R_none_O-B-X.png,stimuli/mB-R_none_O-B-X.png,stimuli/mB-R_none_O-B-O.png,stimuli/mB-R_none_O-B-X.png,stimuli/mW-L_none_O-B-X.png,stimuli/m0_none_O-B-X.png,stimuli/m0_wW-L_O-B-X.png,1,4,28,2,,,,,,,,,304.8004537431989,311.47251491900533,312.2141171096591,312.2141171096591,312.2141171096591,313.10049525508657,313.10049525508657,right,0.41776547650806606,305.8600713722408,S2,B-A,2023-01-25_13h21.51.733,knowing_that_K_ONLY,2022.2.5,59.98791461280637,
Does Anna know that the book is here?,Does Anna think that the book is here?,Is the book here?,late,38,per_10,per_K,1,1,1,show,X-X-X,X-O-X,none,X-O-B,R,R,R,stimuli/blue-R.png,stimuli/blue-R.png,stimuli/blue-R.png,mB-R,m0,stimuli/m0_w0_X-X-X.png,stimuli/mW-R_w0_X-X-X.png,stimuli/mB-R_w0_X-X-X.png,stimuli/mB-R_w0_X-O-X.png,stimuli/mB-R_w0_X-O-B.png,stimuli/mW-L_w0_X-O-B.png,stimuli/m0_wW-R_X-O-B.png,stimuli/m0_none_X-O-B.png,stimuli/m0_none_X-O-B.png,stimuli/m0_wW-L_X-O-B.png,1,5,29,9,,,,,,,,,313.55043722188566,320.22556174139027,320.963490742608,320.963490742608,320.963490742608,321.8503847385291,321.8503847385291,left,0.3226645167451352,314.6080578548135,S2,B-A,2023-01-25_13h21.51.733,knowing_that_K_ONLY,2022.2.5,59.98791461280637,
Does Anna know that the book is here?,Does Anna think that the book is here?,Is the book here?,early,47,mem_7,mem_K,0,1,0,switch,X-O-O,B-O-O,X-O-B,X-O-X,R,L,L,stimuli/blue-R.png,stimuli/blue-L.png,stimuli/blue-L.png,mB-M,m0,stimuli/m0_w0_X-O-O.png,stimuli/m0_wW-R_X-O-O.png,stimuli/m0_none_X-O-O.png,stimuli/mW-R_none_X-O-O.png,stimuli/mB-M_none_B-O-O.png,stimuli/mB-M_none_X-O-B.png,stimuli/mB-M_none_X-O-X.png,stimuli/mW-L_none_X-O-X.png,stimuli/m0_none_X-O-X.png,stimuli/m0_wW-L_X-O-X.png,1,6,30,18,,,,,,,,,322.2004095365992,328.84823953174055,329.6150853559375,329.6150853559375,329.6150853559375,330.50040581531357,330.50040581531357,right,0.5371903288178146,323.26313478010707,S2,B-A,2023-01-25_13h21.51.733,knowing_that_K_ONLY,2022.2.5,59.98791461280637,
Does Anna know that the book is here?,Does Anna think that the book is here?,Is the book here?,early,49,mem_9,mem_K,0,1,0,switch,X-O-O,B-O-O,X-B-O,X-X-O,M,L,L,stimuli/blue-M.png,stimuli/blue-L.png,stimuli/blue-L.png,mB-R,m0,stimuli/m0_w0_X-O-O.png,stimuli/m0_wW-R_X-O-O.png,stimuli/m0_none_X-O-O.png,stimuli/mW-R_none_X-O-O.png,stimuli/mB-R_none_B-O-O.png,stimuli/mB-R_none_X-B-O.png,stimuli/mB-R_none_X-X-O.png,stimuli/mW-L_none_X-X-O.png,stimuli/m0_none_X-X-O.png,stimuli/m0_wW-L_X-X-O.png,1,7,31,20,,,,,,,,,331.0670554366661,337.7389546071645,338.4790018677013,338.4790018677013,338.4790018677013,339.36717522435356,339.36717522435356,left,0.6702807289548218,332.1194652734557,S2,B-A,2023-01-25_13h21.51.733,knowing_that_K_ONLY,2022.2.5,59.98791461280637,
Does Anna know that the book is here?,Does Anna think that the book is here?,Is the book here?,late,39,per_11,per_K,1,1,1,show,X-X-O,X-B-O,none,X-B-O,M,M,M,stimuli/blue-M.png,stimuli/blue-M.png,stimuli/blue-M.png,mB-M,m0,stimuli/m0_w0_X-X-O.png,stimuli/mW-R_w0_X-X-O.png,stimuli/mB-M_w0_X-X-O.png,stimuli/mB-M_w0_X-B-O.png,stimuli/mB-M_w0_X-B-O.png,stimuli/mW-L_w0_X-B-O.png,stimuli/m0_wW-R_X-B-O.png,stimuli/m0_none_X-B-O.png,stimuli/m0_none_X-B-O.png,stimuli/m0_wW-L_X-B-O.png,1,8,32,10,,,,,,,,,340.0674487405922,346.7421353645623,347.4780295151286,347.4780295151286,347.4780295151286,348.3673077158164,348.3673077158164,left,0.1736963139846921,341.1213272116147,S2,B-A,2023-01-25_13h21.51.733,knowing_that_K_ONLY,2022.2.5,59.98791461280637,
Does Anna know that the book is here?,Does Anna think that the book is here?,Is the book here?,late,34,per_6,per_K,1,0,1,no,X-B-X,O-B-X,none,X-B-X,M,R,M,stimuli/blue-M.png,stimuli/blue-R.png,stimuli/blue-M.png,mB-L,m0,stimuli/m0_w0_X-B-X.png,stimuli/mW-R_w0_X-B-X.png,stimuli/mB-L_w0_X-B-X.png,stimuli/mB-L_w0_O-B-X.png,stimuli/mB-L_w0_X-B-X.png,stimuli/mW-L_w0_X-B-X.png,stimuli/m0_wW-R_X-B-X.png,stimuli/m0_none_X-B-X.png,stimuli/m0_none_X-B-X.png,stimuli/m0_wW-L_X-B-X.png,1,9,33,5,,,,,,,,,348.566591556184,355.24020830355585,355.9802837948082,355.9802837948082,355.9802837948082,356.8505499518942,356.8505499518942,right,1.6764462336432189,349.62348813773133,S2,B-A,2023-01-25_13h21.51.733,knowing_that_K_ONLY,2022.2.5,59.98791461280637,
Does Anna know that the book is here?,Does Anna think that the book is here?,Is the book here?,early,46,mem_6,mem_K,0,1,0,switch,O-X-O,O-B-O,O-X-B,O-X-X,R,M,M,stimuli/blue-R.png,stimuli/blue-M.png,stimuli/blue-M.png,mB-L,m0,stimuli/m0_w0_O-X-O.png,stimuli/m0_wW-R_O-X-O.png,stimuli/m0_none_O-X-O.png,stimuli/mW-R_none_O-X-O.png,stimuli/mB-L_none_O-B-O.png,stimuli/mB-L_none_O-X-B.png,stimuli/mB-L_none_O-X-X.png,stimuli/mW-L_none_O-X-X.png,stimuli/m0_none_O-X-X.png,stimuli/m0_wW-L_O-X-X.png,1,10,34,17,,,,,,,,,358.5508687013062,365.22337483020965,365.96319367946126,365.96319367946126,365.96319367946126,366.8505980722839,366.8505980722839,left,0.12245355697814375,359.61364912288263,S2,B-A,2023-01-25_13h21.51.733,knowing_that_K_ONLY,2022.2.5,59.98791461280637,
Does Anna know that the book is here?,Does Anna think that the book is here?,Is the book here?,late,50,mem_10,mem_K,1,1,1,show,O-O-X,O-O-B,O-B-X,O-X-X,M,M,M,stimuli/blue-M.png,stimuli/blue-M.png,stimuli/blue-M.png,mB-L,m0,stimuli/m0_w0_O-O-X.png,stimuli/mW-R_w0_O-O-X.png,stimuli/mB-L_w0_O-O-B.png,stimuli/mB-L_w0_O-B-X.png,stimuli/mB-L_w0_O-X-X.png,stimuli/mW-L_w0_O-X-X.png,stimuli/m0_wW-R_O-X-X.png,stimuli/m0_none_O-X-X.png,stimuli/m0_none_O-X-X.png,stimuli/m0_wW-L_O-X-X.png,1,11,35,21,,,,,,,,,367.0005828982685,373.6726844952209,374.4142956683645,374.4142956683645,374.4142956683645,375.30058463069145,375.30058463069145,left,0.13699585827998817,368.0592817487195,S2,B-A,2023-01-25_13h21.51.733,knowing_that_K_ONLY,2022.2.5,59.98791461280637,
Does Anna know that the book is here?,Does Anna think that the book is here?,Is the book here?,early,37,per_9,per_K,1,0,1,switch,X-O-B,X-B-O,none,X-B-X,M,R,M,stimuli/blue-M.png,stimuli/blue-R.png,stimuli/blue-M.png,mB-R,m0,stimuli/m0_w0_X-O-B.png,stimuli/m0_wW-R_X-O-B.png,stimuli/m0_none_X-O-B.png,stimuli/mW-R_none_X-O-B.png,stimuli/mB-R_none_X-O-B.png,stimuli/mB-R_none_X-B-O.png,stimuli/mB-R_none_X-B-X.png,stimuli/mW-L_none_X-B-X.png,stimuli/m0_none_X-B-X.png,stimuli/m0_wW-L_X-B-X.png,1,12,36,8,,,,,,,,,375.46723707509227,382.140486503602,382.88106629648246,382.88106629648246,382.88106629648246,383.76737194042653,383.76737194042653,right,0.5743052614852786,376.52029717876576,S2,B-A,2023-01-25_13h21.51.733,knowing_that_K_ONLY,2022.2.5,59.98791461280637,
Does Anna know that the book is here?,Does Anna think that the book is here?,Is the book here?,early,43,mem_3,mem_K,0,1,0,switch,O-O-X,O-O-B,B-O-X,X-O-X,L,R,R,stimuli/blue-L.png,stimuli/blue-R.png,stimuli/blue-R.png,mB-M,m0,stimuli/m0_w0_O-O-X.png,stimuli/m0_wW-R_O-O-X.png,stimuli/m0_none_O-O-X.png,stimuli/mW-R_none_O-O-X.png,stimuli/mB-M_none_O-O-B.png,stimuli/mB-M_none_B-O-X.png,stimuli/mB-M_none_X-O-X.png,stimuli/mW-L_none_X-O-X.png,stimuli/m0_none_X-O-X.png,stimuli/m0_wW-L_X-O-X.png,1,13,37,14,,,,,,,,,384.3672749939142,391.0408776260447,391.7786282610614,391.7786282610614,391.7786282610614,392.66732099698856,392.66732099698856,left,1.4510041516041383,385.42028954357374,S2,B-A,2023-01-25_13h21.51.733,knowing_that_K_ONLY,2022.2.5,59.98791461280637,
Does Anna know that the book is here?,Does Anna think that the book is here?,Is the book here?,late,32,per_4,per_K,1,0,1,no,O-X-B,O-O-B,none,O-X-B,R,L,R,stimuli/blue-R.png,stimuli/blue-L.png,stimuli/blue-R.png,mB-M,m0,stimuli/m0_w0_O-X-B.png,stimuli/mW-R_w0_O-X-B.png,stimuli/mB-M_w0_O-X-B.png,stimuli/mB-M_w0_O-O-B.png,stimuli/mB-M_w0_O-X-B.png,stimuli/mW-L_w0_O-X-B.png,stimuli/m0_wW-R_O-X-B.png,stimuli/m0_none_O-X-B.png,stimuli/m0_none_O-X-B.png,stimuli/m0_wW-L_O-X-B.png,1,14,38,3,,,,,,,,,394.15056483715307,400.8235435083043,401.5643029506318,401.5643029506318,401.5643029506318,402.4507446149364,402.4507446149364,right,0.3230764272157103,395.20892074960284,S2,B-A,2023-01-25_13h21.51.733,knowing_that_K_ONLY,2022.2.5,59.98791461280637,
Does Anna know that the book is here?,Does Anna think that the book is here?,Is the book here?,early,36,per_8,per_K,1,0,1,switch,O-X-B,B-X-O,none,B-X-X,L,M,L,stimuli/blue-L.png,stimuli/blue-M.png,stimuli/blue-L.png,mB-L,m0,stimuli/m0_w0_O-X-B.png,stimuli/m0_wW-R_O-X-B.png,stimuli/m0_none_O-X-B.png,stimuli/mW-R_none_O-X-B.png,stimuli/mB-L_none_O-X-B.png,stimuli/mB-L_none_B-X-O.png,stimuli/mB-L_none_B-X-X.png,stimuli/mW-L_none_B-X-X.png,stimuli/m0_none_B-X-X.png,stimuli/m0_wW-L_B-X-X.png,1,15,39,7,,,,,,,,,402.8008133629337,409.47586409782525,410.2131575891981,410.2131575891981,410.2131575891981,411.1006665636087,411.1006665636087,right,0.06472802150528878,403.86362041102257,S2,B-A,2023-01-25_13h21.51.733,knowing_that_K_ONLY,2022.2.5,59.98791461280637,
Does Anna know that the book is here?,Does Anna think that the book is here?,Is the book here?,early,41,mem_1,mem_K,0,1,0,switch,O-O-X,O-O-B,O-B-X,O-X-X,M,R,R,stimuli/blue-M.png,stimuli/blue-R.png,stimuli/blue-R.png,mB-L,m0,stimuli/m0_w0_O-O-X.png,stimuli/m0_wW-R_O-O-X.png,stimuli/m0_none_O-O-X.png,stimuli/mW-R_none_O-O-X.png,stimuli/mB-L_none_O-O-B.png,stimuli/mB-L_none_O-B-X.png,stimuli/mB-L_none_O-X-X.png,stimuli/mW-L_none_O-X-X.png,stimuli/m0_none_O-X-X.png,stimuli/m0_wW-L_O-X-X.png,1,16,40,12,,,,,,,,,411.18401556287427,417.85936047369614,418.59507369156927,418.59507369156927,418.59507369156927,419.4840275608003,419.4840275608003,right,0.17854203679598868,412.2482177813072,S2,B-A,2023-01-25_13h21.51.733,knowing_that_K_ONLY,2022.2.5,59.98791461280637,
Does Anna know that the book is here?,Does Anna think that the book is here?,Is the book here?,late,33,per_5,per_K,1,0,1,no,X-B-O,O-B-O,none,X-B-O,M,R,M,stimuli/blue-M.png,stimuli/blue-R.png,stimuli/blue-M.png,mB-L,m0,stimuli/m0_w0_X-B-O.png,stimuli/mW-R_w0_X-B-O.png,stimuli/mB-L_w0_X-B-O.png,stimuli/mB-L_w0_O-B-O.png,stimuli/mB-L_w0_X-B-O.png,stimuli/mW-L_w0_X-B-O.png,stimuli/m0_wW-R_X-B-O.png,stimuli/m0_none_X-B-O.png,stimuli/m0_none_X-B-O.png,stimuli/m0_wW-L_X-B-O.png,1,17,41,4,,,,,,,,,419.68393343733624,426.35741191892885,427.07352891168557,427.07352891168557,427.07352891168557,427.9840990997618,427.9840990997618,right,0.0223086184123531,420.73863701254595,S2,B-A,2023-01-25_13h21.51.733,knowing_that_K_ONLY,2022.2.5,59.98791461280637,
Does Anna know that the book is here?,Does Anna think that the book is here?,Is the book here?,late,40,per_12,per_K,1,1,1,show,O-X-X,O-B-X,none,O-B-X,M,M,M,stimuli/blue-M.png,stimuli/blue-M.png,stimuli/blue-M.png,mB-M,m0,stimuli/m0_w0_O-X-X.png,stimuli/mW-R_w0_O-X-X.png,stimuli/mB-M_w0_O-X-X.png,stimuli/mB-M_w0_O-B-X.png,stimuli/mB-M_w0_O-B-X.png,stimuli/mW-L_w0_O-B-X.png,stimuli/m0_wW-R_O-B-X.png,stimuli/m0_none_O-B-X.png,stimuli/m0_none_O-B-X.png,stimuli/m0_wW-L_O-B-X.png,1,18,42,11,,,,,,,,,428.03388830041513,434.7071473529795,435.4491819855757,435.4491819855757,435.4491819855757,436.3342778830556,436.3342778830556,left,0.09559179528150707,429.0868415768491,S2,B-A,2023-01-25_13h21.51.733,knowing_that_K_ONLY,2022.2.5,59.98791461280637,
Does Anna know that the book is here?,Does Anna think that the book is here?,Is the book here?,early,45,mem_5,mem_K,0,1,0,switch,O-X-O,O-B-O,B-X-O,X-X-O,L,M,M,stimuli/blue-L.png,stimuli/blue-M.png,stimuli/blue-M.png,mB-R,m0,stimuli/m0_w0_O-X-O.png,stimuli/m0_wW-R_O-X-O.png,stimuli/m0_none_O-X-O.png,stimuli/mW-R_none_O-X-O.png,stimuli/mB-R_none_O-B-O.png,stimuli/mB-R_none_B-X-O.png,stimuli/mB-R_none_X-X-O.png,stimuli/mW-L_none_X-X-O.png,stimuli/m0_none_X-X-O.png,stimuli/m0_wW-L_X-X-O.png,1,19,43,16,,,,,,,,,436.45072055468336,443.1261835208861,443.8637817747658,443.8637817747658,443.8637817747658,444.75080473325215,444.75080473325215,right,0.31859994819387794,437.5103911161423,S2,B-A,2023-01-25_13h21.51.733,knowing_that_K_ONLY,2022.2.5,59.98791461280637,
Does Anna know that the book is here?,Does Anna think that the book is here?,Is the book here?,early,44,mem_4,mem_K,0,1,0,switch,O-X-O,O-B-O,O-X-B,O-X-X,R,M,M,stimuli/blue-R.png,stimuli/blue-M.png,stimuli/blue-M.png,mB-L,m0,stimuli/m0_w0_O-X-O.png,stimuli/m0_wW-R_O-X-O.png,stimuli/m0_none_O-X-O.png,stimuli/mW-R_none_O-X-O.png,stimuli/mB-L_none_O-B-O.png,stimuli/mB-L_none_O-X-B.png,stimuli/mB-L_none_O-X-X.png,stimuli/mW-L_none_O-X-X.png,stimuli/m0_none_O-X-X.png,stimuli/m0_wW-L_O-X-X.png,1,20,44,15,,,,,,,,,445.1006652803626,451.7508393799653,452.5112030673772,452.5112030673772,452.5112030673772,453.4006897896761,453.4006897896761,left,1.0686036373954266,446.16372191300616,S2,B-A,2023-01-25_13h21.51.733,knowing_that_K_ONLY,2022.2.5,59.98791461280637,
Does Anna know that the book is here?,Does Anna think that the book is here?,Is the book here?,early,29,per_1,per_K,1,0,1,no,B-X-X,B-O-X,none,B-X-X,L,M,L,stimuli/blue-L.png,stimuli/blue-M.png,stimuli/blue-L.png,mB-M,m0,stimuli/m0_w0_B-X-X.png,stimuli/m0_wW-R_B-X-X.png,stimuli/m0_none_B-X-X.png,stimuli/mW-R_none_B-X-X.png,stimuli/mB-M_none_B-X-X.png,stimuli/mB-M_none_B-O-X.png,stimuli/mB-M_none_B-X-X.png,stimuli/mW-L_none_B-X-X.png,stimuli/m0_none_B-X-X.png,stimuli/m0_wW-L_B-X-X.png,1,21,45,0,,,,,,,,,454.5006675901823,461.1753070562845,461.9141118484549,461.9141118484549,461.9141118484549,462.8008672577562,462.8008672577562,right,1.045619095559232,455.5614795672009,S2,B-A,2023-01-25_13h21.51.733,knowing_that_K_ONLY,2022.2.5,59.98791461280637,
Does Anna know that the book is here?,Does Anna think that the book is here?,Is the book here?,late,52,mem_12,mem_K,1,1,1,show,X-O-O,B-O-O,X-O-B,X-O-X,R,R,R,stimuli/blue-R.png,stimuli/blue-R.png,stimuli/blue-R.png,mB-M,m0,stimuli/m0_w0_X-O-O.png,stimuli/mW-R_w0_X-O-O.png,stimuli/mB-M_w0_B-O-O.png,stimuli/mB-M_w0_X-O-B.png,stimuli/mB-M_w0_X-O-X.png,stimuli/mW-L_w0_X-O-X.png,stimuli/m0_wW-R_X-O-X.png,stimuli/m0_none_X-O-X.png,stimuli/m0_none_X-O-X.png,stimuli/m0_wW-L_X-O-X.png,1,22,46,23,,,,,,,,,463.86744983133394,470.5426628923742,471.2820990240434,471.2820990240434,471.2820990240434,472.167584375944,472.167584375944,left,0.030939811607822776,464.9205125013832,S2,B-A,2023-01-25_13h21.51.733,knowing_that_K_ONLY,2022.2.5,59.98791461280637,
Does Anna know that the book is here?,Does Anna think that the book is here?,Is the book here?,early,42,mem_2,mem_K,0,1,0,switch,O-O-X,O-O-B,B-O-X,X-O-X,L,R,R,stimuli/blue-L.png,stimuli/blue-R.png,stimuli/blue-R.png,mB-M,m0,stimuli/m0_w0_O-O-X.png,stimuli/m0_wW-R_O-O-X.png,stimuli/m0_none_O-O-X.png,stimuli/mW-R_none_O-O-X.png,stimuli/mB-M_none_O-O-B.png,stimuli/mB-M_none_B-O-X.png,stimuli/mB-M_none_X-O-X.png,stimuli/mW-L_none_X-O-X.png,stimuli/m0_none_X-O-X.png,stimuli/m0_wW-L_X-O-X.png,1,23,47,13,,,,,,,,,472.21768700063694,478.8867079304764,479.63042741816025,479.63042741816025,479.63042741816025,480.5175992291188,480.5175992291188,left,0.39322087180335075,473.2715051608393,S2,B-A,2023-01-25_13h21.51.733,knowing_that_K_ONLY,2022.2.5,59.98791461280637,
Does Anna know that the book is here?,Does Anna think that the book is here?,Is the book here?,early,45,mem_5,mem_K,0,1,0,switch,O-X-O,O-B-O,B-X-O,X-X-O,L,M,M,stimuli/blue-L.png,stimuli/blue-M.png,stimuli/blue-M.png,mB-R,m0,stimuli/m0_w0_O-X-O.png,stimuli/m0_wW-R_O-X-O.png,stimuli/m0_none_O-X-O.png,stimuli/mW-R_none_O-X-O.png,stimuli/mB-R_none_O-B-O.png,stimuli/mB-R_none_B-X-O.png,stimuli/mB-R_none_X-X-O.png,stimuli/mW-L_none_X-X-O.png,stimuli/m0_none_X-X-O.png,stimuli/m0_wW-L_X-X-O.png,2,0,48,16,,,,,,,,,480.93409752787556,487.6065224937629,488.3472241916461,488.3472241916461,488.3472241916461,489.23420352104586,489.23420352104586,left,0.8122201473452151,481.992065910832,S2,B-A,2023-01-25_13h21.51.733,knowing_that_K_ONLY,2022.2.5,59.98791461280637,
Does Anna know that the book is here?,Does Anna think that the book is here?,Is the book here?,early,48,mem_8,mem_K,0,1,0,switch,X-O-O,B-O-O,X-B-O,X-X-O,M,L,L,stimuli/blue-M.png,stimuli/blue-L.png,stimuli/blue-L.png,mB-R,m0,stimuli/m0_w0_X-O-O.png,stimuli/m0_wW-R_X-O-O.png,stimuli/m0_none_X-O-O.png,stimuli/mW-R_none_X-O-O.png,stimuli/mB-R_none_B-O-O.png,stimuli/mB-R_none_X-B-O.png,stimuli/mB-R_none_X-X-O.png,stimuli/mW-L_none_X-X-O.png,stimuli/m0_none_X-X-O.png,stimuli/m0_wW-L_X-X-O.png,2,1,49,19,,,,,,,,,490.0674407205079,496.74213921430055,497.47823065833654,497.47823065833654,497.47823065833654,498.3674671546323,498.3674671546323,left,0.15820026665460318,491.1299410813954,S2,B-A,2023-01-25_13h21.51.733,knowing_that_K_ONLY,2022.2.5,59.98791461280637,
Does Anna know that the book is here?,Does Anna think that the book is here?,Is the book here?,early,42,mem_2,mem_K,0,1,0,switch,O-O-X,O-O-B,B-O-X,X-O-X,L,R,R,stimuli/blue-L.png,stimuli/blue-R.png,stimuli/blue-R.png,mB-M,m0,stimuli/m0_w0_O-O-X.png,stimuli/m0_wW-R_O-O-X.png,stimuli/m0_none_O-O-X.png,stimuli/mW-R_none_O-O-X.png,stimuli/mB-M_none_O-O-B.png,stimuli/mB-M_none_B-O-X.png,stimuli/mB-M_none_X-O-X.png,stimuli/mW-L_none_X-O-X.png,stimuli/m0_none_X-O-X.png,stimuli/m0_wW-L_X-O-X.png,2,2,50,13,,,,,,,,,498.5509787366027,505.222742849146,505.96137248328887,505.96137248328887,505.96137248328887,506.850804669084,506.850804669084,right,1.7478289761347696,499.61231041373685,S2,B-A,2023-01-25_13h21.51.733,knowing_that_K_ONLY,2022.2.5,59.98791461280637,
Does Anna know that the book is here?,Does Anna think that the book is here?,Is the book here?,late,51,mem_11,mem_K,1,1,1,show,O-X-O,O-B-O,O-X-B,O-X-X,R,R,R,stimuli/blue-R.png,stimuli/blue-R.png,stimuli/blue-R.png,mB-L,m0,stimuli/m0_w0_O-X-O.png,stimuli/mW-R_w0_O-X-O.png,stimuli/mB-L_w0_O-B-O.png,stimuli/mB-L_w0_O-X-B.png,stimuli/mB-L_w0_O-X-X.png,stimuli/mW-L_w0_O-X-X.png,stimuli/m0_wW-R_O-X-X.png,stimuli/m0_none_O-X-X.png,stimuli/m0_none_O-X-X.png,stimuli/m0_wW-L_O-X-X.png,2,3,51,22,,,,,,,,,508.61746282386594,515.2917468405794,516.0078109010356,516.0078109010356,516.0078109010356,516.9174866914982,516.9174866914982,left,0.3601538259536028,509.6680274042301,S2,B-A,2023-01-25_13h21.51.733,knowing_that_K_ONLY,2022.2.5,59.98791461280637,
Does Anna know that the book is here?,Does Anna think that the book is here?,Is the book here?,early,35,per_7,per_K,1,0,1,switch,B-X-O,O-X-B,none,X-X-B,R,L,R,stimuli/blue-R.png,stimuli/blue-L.png,stimuli/blue-R.png,mB-R,m0,stimuli/m0_w0_B-X-O.png,stimuli/m0_wW-R_B-X-O.png,stimuli/m0_none_B-X-O.png,stimuli/mW-R_none_B-X-O.png,stimuli/mB-R_none_B-X-O.png,stimuli/mB-R_none_O-X-B.png,stimuli/mB-R_none_X-X-B.png,stimuli/mW-L_none_X-X-B.png,stimuli/m0_none_X-X-B.png,stimuli/m0_wW-L_X-X-B.png,2,4,52,6,,,,,,,,,517.3007646008627,523.974728777539,524.7122837229399,524.7122837229399,524.7122837229399,525.6009694013046,525.6009694013046,right,0.13238817092496902,518.3535808945308,S2,B-A,2023-01-25_13h21.51.733,knowing_that_K_ONLY,2022.2.5,59.98791461280637,
Does Anna know that the book is here?,Does Anna think that the book is here?,Is the book here?,late,52,mem_12,mem_K,1,1,1,show,X-O-O,B-O-O,X-O-B,X-O-X,R,R,R,stimuli/blue-R.png,stimuli/blue-R.png,stimuli/blue-R.png,mB-M,m0,stimuli/m0_w0_X-O-O.png,stimuli/mW-R_w0_X-O-O.png,stimuli/mB-M_w0_B-O-O.png,stimuli/mB-M_w0_X-O-B.png,stimuli/mB-M_w0_X-O-X.png,stimuli/mW-L_w0_X-O-X.png,stimuli/m0_wW-R_X-O-X.png,stimuli/m0_none_X-O-X.png,stimuli/m0_none_X-O-X.png,stimuli/m0_wW-L_X-O-X.png,2,5,53,23,,,,,,,,,525.7508291143458,532.4255975428969,533.1616248266073,533.1616248266073,533.1616248266073,534.0507224153262,534.0507224153262,left,0.2275520081166178,526.8079351799097,S2,B-A,2023-01-25_13h21.51.733,knowing_that_K_ONLY,2022.2.5,59.98791461280637,
Does Anna know that the book is here?,Does Anna think that the book is here?,Is the book here?,late,40,per_12,per_K,1,1,1,show,O-X-X,O-B-X,none,O-B-X,M,M,M,stimuli/blue-M.png,stimuli/blue-M.png,stimuli/blue-M.png,mB-M,m0,stimuli/m0_w0_O-X-X.png,stimuli/mW-R_w0_O-X-X.png,stimuli/mB-M_w0_O-X-X.png,stimuli/mB-M_w0_O-B-X.png,stimuli/mB-M_w0_O-B-X.png,stimuli/mW-L_w0_O-B-X.png,stimuli/m0_wW-R_O-B-X.png,stimuli/m0_none_O-B-X.png,stimuli/m0_none_O-B-X.png,stimuli/m0_wW-L_O-B-X.png,2,6,54,11,,,,,,,,,534.3009551576106,540.9761553865392,541.714498543879,541.714498543879,541.714498543879,542.6008359474363,542.6008359474363,left,0.06182187097147107,535.3409788071876,S2,B-A,2023-01-25_13h21.51.733,knowing_that_K_ONLY,2022.2.5,59.98791461280637,
Does Anna know that the book is here?,Does Anna think that the book is here?,Is the book here?,late,38,per_10,per_K,1,1,1,show,X-X-X,X-O-X,none,X-O-B,R,R,R,stimuli/blue-R.png,stimuli/blue-R.png,stimuli/blue-R.png,mB-R,m0,stimuli/m0_w0_X-X-X.png,stimuli/mW-R_w0_X-X-X.png,stimuli/mB-R_w0_X-X-X.png,stimuli/mB-R_w0_X-O-X.png,stimuli/mB-R_w0_X-O-B.png,stimuli/mW-L_w0_X-O-B.png,stimuli/m0_wW-R_X-O-B.png,stimuli/m0_none_X-O-B.png,stimuli/m0_none_X-O-B.png,stimuli/m0_wW-L_X-O-B.png,2,7,55,9,,,,,,,,,542.6841843050206,549.3549273029203,550.0962343553547,550.0962343553547,550.0962343553547,550.9842033606255,550.9842033606255,left,0.1579416998429224,543.7454556712182,S2,B-A,2023-01-25_13h21.51.733,knowing_that_K_ONLY,2022.2.5,59.98791461280637,
Does Anna know that the book is here?,Does Anna think that the book is here?,Is the book here?,late,50,mem_10,mem_K,1,1,1,show,O-O-X,O-O-B,O-B-X,O-X-X,M,M,M,stimuli/blue-M.png,stimuli/blue-M.png,stimuli/blue-M.png,mB-L,m0,stimuli/m0_w0_O-O-X.png,stimuli/mW-R_w0_O-O-X.png,stimuli/mB-L_w0_O-O-B.png,stimuli/mB-L_w0_O-B-X.png,stimuli/mB-L_w0_O-X-X.png,stimuli/mW-L_w0_O-X-X.png,stimuli/m0_wW-R_O-X-X.png,stimuli/m0_none_O-X-X.png,stimuli/m0_none_O-X-X.png,stimuli/m0_wW-L_O-X-X.png,2,8,56,21,,,,,,,,,551.16752823547,557.8421686639776,558.5817186805652,558.5817186805652,558.5817186805652,559.467625566991,559.467625566991,left,0.017916189623065293,552.2220110985218,S2,B-A,2023-01-25_13h21.51.733,knowing_that_K_ONLY,2022.2.5,59.98791461280637,
Does Anna know that the book is here?,Does Anna think that the book is here?,Is the book here?,late,32,per_4,per_K,1,0,1,no,O-X-B,O-O-B,none,O-X-B,R,L,R,stimuli/blue-R.png,stimuli/blue-L.png,stimuli/blue-R.png,mB-M,m0,stimuli/m0_w0_O-X-B.png,stimuli/mW-R_w0_O-X-B.png,stimuli/mB-M_w0_O-X-B.png,stimuli/mB-M_w0_O-O-B.png,stimuli/mB-M_w0_O-X-B.png,stimuli/mW-L_w0_O-X-B.png,stimuli/m0_wW-R_O-X-B.png,stimuli/m0_none_O-X-B.png,stimuli/m0_none_O-X-B.png,stimuli/m0_wW-L_O-X-B.png,2,9,57,3,,,,,,,,,559.5176239309367,566.1932761706412,566.918931265478,566.918931265478,566.918931265478,567.817578505259,567.817578505259,right,0.0931325227720663,560.5701996226562,S2,B-A,2023-01-25_13h21.51.733,knowing_that_K_ONLY,2022.2.5,59.98791461280637,
Does Anna know that the book is here?,Does Anna think that the book is here?,Is the book here?,early,29,per_1,per_K,1,0,1,no,B-X-X,B-O-X,none,B-X-X,L,M,L,stimuli/blue-L.png,stimuli/blue-M.png,stimuli/blue-L.png,mB-M,m0,stimuli/m0_w0_B-X-X.png,stimuli/m0_wW-R_B-X-X.png,stimuli/m0_none_B-X-X.png,stimuli/mW-R_none_B-X-X.png,stimuli/mB-M_none_B-X-X.png,stimuli/mB-M_none_B-O-X.png,stimuli/mB-M_none_B-X-X.png,stimuli/mW-L_none_B-X-X.png,stimuli/m0_none_B-X-X.png,stimuli/m0_wW-L_B-X-X.png,2,10,58,0,,,,,,,,,567.9344892278314,574.6069976023864,575.344933661283,575.344933661283,575.344933661283,576.2342320724856,576.2342320724856,right,0.060172945843078196,568.9908994727302,S2,B-A,2023-01-25_13h21.51.733,knowing_that_K_ONLY,2022.2.5,59.98791461280637,
Does Anna know that the book is here?,Does Anna think that the book is here?,Is the book here?,late,39,per_11,per_K,1,1,1,show,X-X-O,X-B-O,none,X-B-O,M,M,M,stimuli/blue-M.png,stimuli/blue-M.png,stimuli/blue-M.png,mB-M,m0,stimuli/m0_w0_X-X-O.png,stimuli/mW-R_w0_X-X-O.png,stimuli/mB-M_w0_X-X-O.png,stimuli/mB-M_w0_X-B-O.png,stimuli/mB-M_w0_X-B-O.png,stimuli/mW-L_w0_X-B-O.png,stimuli/m0_wW-R_X-B-O.png,stimuli/m0_none_X-B-O.png,stimuli/m0_none_X-B-O.png,stimuli/m0_wW-L_X-B-O.png,2,11,59,10,,,,,,,,,576.317573372391,582.9920011087088,583.7298900096212,583.7298900096212,583.7298900096212,584.6175221722806,584.6175221722806,left,0.013009835034608841,577.3811618955806,S2,B-A,2023-01-25_13h21.51.733,knowing_that_K_ONLY,2022.2.5,59.98791461280637,
Does Anna know that the book is here?,Does Anna think that the book is here?,Is the book here?,early,43,mem_3,mem_K,0,1,0,switch,O-O-X,O-O-B,B-O-X,X-O-X,L,R,R,stimuli/blue-L.png,stimuli/blue-R.png,stimuli/blue-R.png,mB-M,m0,stimuli/m0_w0_O-O-X.png,stimuli/m0_wW-R_O-O-X.png,stimuli/m0_none_O-O-X.png,stimuli/mW-R_none_O-O-X.png,stimuli/mB-M_none_O-O-B.png,stimuli/mB-M_none_B-O-X.png,stimuli/mB-M_none_X-O-X.png,stimuli/mW-L_none_X-O-X.png,stimuli/m0_none_X-O-X.png,stimuli/m0_wW-L_X-O-X.png,2,12,60,14,,,,,,,,,584.6508330281358,591.3233073975425,592.0625982057536,592.0625982057536,592.0625982057536,592.9509229811374,592.9509229811374,left,0.20737609267234802,585.7108385073952,S2,B-A,2023-01-25_13h21.51.733,knowing_that_K_ONLY,2022.2.5,59.98791461280637,
Does Anna know that the book is here?,Does Anna think that the book is here?,Is the book here?,early,36,per_8,per_K,1,0,1,switch,O-X-B,B-X-O,none,B-X-X,L,M,L,stimuli/blue-L.png,stimuli/blue-M.png,stimuli/blue-L.png,mB-L,m0,stimuli/m0_w0_O-X-B.png,stimuli/m0_wW-R_O-X-B.png,stimuli/m0_none_O-X-B.png,stimuli/mW-R_none_O-X-B.png,stimuli/mB-L_none_O-X-B.png,stimuli/mB-L_none_B-X-O.png,stimuli/mB-L_none_B-X-X.png,stimuli/mW-L_none_B-X-X.png,stimuli/m0_none_B-X-X.png,stimuli/m0_wW-L_B-X-X.png,2,13,61,7,,,,,,,,,593.1844977290602,599.8592738569714,600.5958638283191,600.5958638283191,600.5958638283191,601.4843182079494,601.4843182079494,right,0.009859874611720443,594.2397585383151,S2,B-A,2023-01-25_13h21.51.733,knowing_that_K_ONLY,2022.2.5,59.98791461280637,
Does Anna know that the book is here?,Does Anna think that the book is here?,Is the book here?,early,41,mem_1,mem_K,0,1,0,switch,O-O-X,O-O-B,O-B-X,O-X-X,M,R,R,stimuli/blue-M.png,stimuli/blue-R.png,stimuli/blue-R.png,mB-L,m0,stimuli/m0_w0_O-O-X.png,stimuli/m0_wW-R_O-O-X.png,stimuli/m0_none_O-O-X.png,stimuli/mW-R_none_O-O-X.png,stimuli/mB-L_none_O-O-B.png,stimuli/mB-L_none_O-B-X.png,stimuli/mB-L_none_O-X-X.png,stimuli/mW-L_none_O-X-X.png,stimuli/m0_none_O-X-X.png,stimuli/m0_wW-L_O-X-X.png,2,14,62,12,,,,,,,,,601.5176117403898,608.1897633825429,608.9308153968304,608.9308153968304,608.9308153968304,609.8173488106113,609.8173488106113,right,1.101028436445631,602.5706484254915,S2,B-A,2023-01-25_13h21.51.733,knowing_that_K_ONLY,2022.2.5,59.98791461280637,
Does Anna know that the book is here?,Does Anna think that the book is here?,Is the book here?,late,34,per_6,per_K,1,0,1,no,X-B-X,O-B-X,none,X-B-X,M,R,M,stimuli/blue-M.png,stimuli/blue-R.png,stimuli/blue-M.png,mB-L,m0,stimuli/m0_w0_X-B-X.png,stimuli/mW-R_w0_X-B-X.png,stimuli/mB-L_w0_X-B-X.png,stimuli/mB-L_w0_O-B-X.png,stimuli/mB-L_w0_X-B-X.png,stimuli/mW-L_w0_X-B-X.png,stimuli/m0_wW-R_X-B-X.png,stimuli/m0_none_X-B-X.png,stimuli/m0_none_X-B-X.png,stimuli/m0_wW-L_X-B-X.png,2,15,63,5,,,,,,,,,610.9506095569814,617.6252660255414,618.3639585369965,618.3639585369965,618.3639585369965,619.250937224715,619.250937224715,right,0.3798979410203174,612.0035423020599,S2,B-A,2023-01-25_13h21.51.733,knowing_that_K_ONLY,2022.2.5,59.98791461280637,
Does Anna know that the book is here?,Does Anna think that the book is here?,Is the book here?,early,49,mem_9,mem_K,0,1,0,switch,X-O-O,B-O-O,X-B-O,X-X-O,M,L,L,stimuli/blue-M.png,stimuli/blue-L.png,stimuli/blue-L.png,mB-R,m0,stimuli/m0_w0_X-O-O.png,stimuli/m0_wW-R_X-O-O.png,stimuli/m0_none_X-O-O.png,stimuli/mW-R_none_X-O-O.png,stimuli/mB-R_none_B-O-O.png,stimuli/mB-R_none_X-B-O.png,stimuli/mB-R_none_X-X-O.png,stimuli/mW-L_none_X-X-O.png,stimuli/m0_none_X-X-O.png,stimuli/m0_wW-L_X-X-O.png,2,16,64,20,,,,,,,,,619.6511608882574,626.3211785516469,627.0642047850415,627.0642047850415,627.0642047850415,627.9511234827805,627.9511234827805,left,0.23149531322997063,620.7156412426848,S2,B-A,2023-01-25_13h21.51.733,knowing_that_K_ONLY,2022.2.5,59.98791461280637,
Does Anna know that the book is here?,Does Anna think that the book is here?,Is the book here?,early,31,per_3,per_K,1,0,1,no,O-B-X,O-B-O,none,O-B-X,M,R,M,stimuli/blue-M.png,stimuli/blue-R.png,stimuli/blue-M.png,mB-R,m0,stimuli/m0_w0_O-B-X.png,stimuli/m0_wW-R_O-B-X.png,stimuli/m0_none_O-B-X.png,stimuli/mW-R_none_O-B-X.png,stimuli/mB-R_none_O-B-X.png,stimuli/mB-R_none_O-B-O.png,stimuli/mB-R_none_O-B-X.png,stimuli/mW-L_none_O-B-X.png,stimuli/m0_none_O-B-X.png,stimuli/m0_wW-L_O-B-X.png,2,17,65,2,,,,,,,,,628.2009712619474,634.8761628291104,635.6102996232221,635.6102996232221,635.6102996232221,636.5011295458535,636.5011295458535,right,0.33695113845169544,629.2650807684986,S2,B-A,2023-01-25_13h21.51.733,knowing_that_K_ONLY,2022.2.5,59.98791461280637,
Does Anna know that the book is here?,Does Anna think that the book is here?,Is the book here?,late,33,per_5,per_K,1,0,1,no,X-B-O,O-B-O,none,X-B-O,M,R,M,stimuli/blue-M.png,stimuli/blue-R.png,stimuli/blue-M.png,mB-L,m0,stimuli/m0_w0_X-B-O.png,stimuli/mW-R_w0_X-B-O.png,stimuli/mB-L_w0_X-B-O.png,stimuli/mB-L_w0_O-B-O.png,stimuli/mB-L_w0_X-B-O.png,stimuli/mW-L_w0_X-B-O.png,stimuli/m0_wW-R_X-B-O.png,stimuli/m0_none_X-B-O.png,stimuli/m0_none_X-B-O.png,stimuli/m0_wW-L_X-B-O.png,2,18,66,4,,,,,,,,,636.8677167390706,643.541712354403,644.2804975776235,644.2804975776235,644.2804975776235,645.1676950528054,645.1676950528054,right,0.31853514595422894,637.9231520649046,S2,B-A,2023-01-25_13h21.51.733,knowing_that_K_ONLY,2022.2.5,59.98791461280637,
Does Anna know that the book is here?,Does Anna think that the book is here?,Is the book here?,early,37,per_9,per_K,1,0,1,switch,X-O-B,X-B-O,none,X-B-X,M,R,M,stimuli/blue-M.png,stimuli/blue-R.png,stimuli/blue-M.png,mB-R,m0,stimuli/m0_w0_X-O-B.png,stimuli/m0_wW-R_X-O-B.png,stimuli/m0_none_X-O-B.png,stimuli/mW-R_none_X-O-B.png,stimuli/mB-R_none_X-O-B.png,stimuli/mB-R_none_X-B-O.png,stimuli/mB-R_none_X-B-X.png,stimuli/mW-L_none_X-B-X.png,stimuli/m0_none_X-B-X.png,stimuli/m0_wW-L_X-B-X.png,2,19,67,8,,,,,,,,,645.5177057355177,652.1910356854787,652.9322346273111,652.9322346273111,652.9322346273111,653.817845092155,653.817845092155,right,0.13229193014558405,646.5704973274842,S2,B-A,2023-01-25_13h21.51.733,knowing_that_K_ONLY,2022.2.5,59.98791461280637,
Does Anna know that the book is here?,Does Anna think that the book is here?,Is the book here?,early,46,mem_6,mem_K,0,1,0,switch,O-X-O,O-B-O,O-X-B,O-X-X,R,M,M,stimuli/blue-R.png,stimuli/blue-M.png,stimuli/blue-M.png,mB-L,m0,stimuli/m0_w0_O-X-O.png,stimuli/m0_wW-R_O-X-O.png,stimuli/m0_none_O-X-O.png,stimuli/mW-R_none_O-X-O.png,stimuli/mB-L_none_O-B-O.png,stimuli/mB-L_none_O-X-B.png,stimuli/mB-L_none_O-X-X.png,stimuli/mW-L_none_O-X-X.png,stimuli/m0_none_O-X-X.png,stimuli/m0_wW-L_O-X-X.png,2,20,68,17,,,,,,,,,653.9677182788728,660.6398250086932,661.3806081904331,661.3806081904331,661.3806081904331,662.2677662068745,662.2677662068745,right,1.0026046036509797,655.0248913923278,S2,B-A,2023-01-25_13h21.51.733,knowing_that_K_ONLY,2022.2.5,59.98791461280637,
Does Anna know that the book is here?,Does Anna think that the book is here?,Is the book here?,early,44,mem_4,mem_K,0,1,0,switch,O-X-O,O-B-O,O-X-B,O-X-X,R,M,M,stimuli/blue-R.png,stimuli/blue-M.png,stimuli/blue-M.png,mB-L,m0,stimuli/m0_w0_O-X-O.png,stimuli/m0_wW-R_O-X-O.png,stimuli/m0_none_O-X-O.png,stimuli/mW-R_none_O-X-O.png,stimuli/mB-L_none_O-B-O.png,stimuli/mB-L_none_O-X-B.png,stimuli/mB-L_none_O-X-X.png,stimuli/mW-L_none_O-X-X.png,stimuli/m0_none_O-X-X.png,stimuli/m0_wW-L_O-X-X.png,2,21,69,15,,,,,,,,,663.3009365510661,669.9510057482403,670.6898920242675,670.6898920242675,670.6898920242675,671.6010380530497,671.6010380530497,right,0.4047521201428026,664.3615794650977,S2,B-A,2023-01-25_13h21.51.733,knowing_that_K_ONLY,2022.2.5,59.98791461280637,
Does Anna know that the book is here?,Does Anna think that the book is here?,Is the book here?,early,47,mem_7,mem_K,0,1,0,switch,X-O-O,B-O-O,X-O-B,X-O-X,R,L,L,stimuli/blue-R.png,stimuli/blue-L.png,stimuli/blue-L.png,mB-M,m0,stimuli/m0_w0_X-O-O.png,stimuli/m0_wW-R_X-O-O.png,stimuli/m0_none_X-O-O.png,stimuli/mW-R_none_X-O-O.png,stimuli/mB-M_none_B-O-O.png,stimuli/mB-M_none_X-O-B.png,stimuli/mB-M_none_X-O-X.png,stimuli/mW-L_none_X-O-X.png,stimuli/m0_none_X-O-X.png,stimuli/m0_wW-L_X-O-X.png,2,22,70,18,,,,,,,,,672.0346344872378,678.7077819005353,679.448525944259,679.448525944259,679.448525944259,680.3344017128693,680.3344017128693,left,0.1843751899432391,673.0966635891236,S2,B-A,2023-01-25_13h21.51.733,knowing_that_K_ONLY,2022.2.5,59.98791461280637,
Does Anna know that the book is here?,Does Anna think that the book is here?,Is the book here?,early,30,per_2,per_K,1,0,1,no,X-X-B,O-X-B,none,X-X-B,R,L,R,stimuli/blue-R.png,stimuli/blue-L.png,stimuli/blue-R.png,mB-L,m0,stimuli/m0_w0_X-X-B.png,stimuli/m0_wW-R_X-X-B.png,stimuli/m0_none_X-X-B.png,stimuli/mW-R_none_X-X-B.png,stimuli/mB-L_none_X-X-B.png,stimuli/mB-L_none_O-X-B.png,stimuli/mB-L_none_X-X-B.png,stimuli/mW-L_none_X-X-B.png,stimuli/m0_none_X-X-B.png,stimuli/m0_wW-L_X-X-B.png,2,23,71,1,,,,,,,,,680.5510724110063,687.226209441782,687.9630804361077,687.9630804361077,687.9630804361077,688.8512493014568,688.8512493014568,right,0.41127243253868073,681.6657865983434,S2,B-A,2023-01-25_13h21.51.733,knowing_that_K_ONLY,2022.2.5,59.98791461280637,
