K_text,B_text,T_text,Anna_exit,trial_num,trial_code,cond,K_hit,B_hit,T_hit,book_move,start_shelf,mid_shelf,end_shelf,rectangle,rectangle_path,Todd_mid,Todd_final,frame_1,frame_2,frame_3,frame_4,frame_5,frame_6,frame_7,frame_8,frame_9,frame_10,trials.thisRepN,trials.thisTrialN,trials.thisN,trials.thisIndex,frames.thisRepN,frames.thisTrialN,frames.thisN,frames.thisIndex,sessionInst.started,startSession.started,startSession.keys,startSession.rt,crossText.started,movingImage.started,staticImage.started,promptText3.started,rectImage.started,respText.started,keyResp.started,keyResp.keys,keyResp.rt,crossText.stopped,subject,session,date,expName,psychopyVersion,frameRate,
,,,,,,,,,,,,,,,,,,,,,,,,,,,,,,,,,,,,15.9789829403162,15.9789829403162,left,24.402091470197774,,,,,,,,,,,S2,B-M,2023-01-25_13h57.39.520,knowing_that_K_ONLY,2022.2.5,60.002463891763306,
Does Anna know that the book is here?,Does Anna think that the book is here?,Is the book here?,early,23,no_5,no_K,0,0,0,no,X-O-X,X-O-O,X-O-X,R,stimuli/blue-R.png,mB-R,m0,stimuli/m0_w0_X-O-X.png,stimuli/m0_wW-R_X-O-X.png,stimuli/m0_none_X-O-X.png,stimuli/mW-R_none_X-O-X.png,stimuli/mB-R_none_X-O-X.png,stimuli/mB-R_none_X-O-O.png,stimuli/mB-R_none_X-O-X.png,stimuli/mW-L_none_X-O-X.png,stimuli/m0_none_X-O-X.png,stimuli/m0_wW-L_X-O-X.png,0,0,0,22,,,,,,,,,40.44289104710333,47.08393029344734,47.841939610778354,47.841939610778354,47.841939610778354,48.7092739532236,48.7092739532236,right,0.0010446272790431976,,S2,B-M,2023-01-25_13h57.39.520,knowing_that_K_ONLY,2022.2.5,60.002463891763306,
Does Anna know that the book is here?,Does Anna think that the book is here?,Is the book here?,early,7,per_7,per_K,1,1,1,switch,B-X-O,O-X-B,X-X-B,R,stimuli/blue-R.png,mB-R,m0,stimuli/m0_w0_B-X-O.png,stimuli/m0_wW-R_B-X-O.png,stimuli/m0_none_B-X-O.png,stimuli/mW-R_none_B-X-O.png,stimuli/mB-R_none_B-X-O.png,stimuli/mB-R_none_O-X-B.png,stimuli/mB-R_none_X-X-B.png,stimuli/mW-L_none_X-X-B.png,stimuli/m0_none_X-X-B.png,stimuli/m0_wW-L_X-X-B.png,0,1,1,6,,,,,,,,,48.72585752129089,55.37611567112617,56.11778490955476,56.11778490955476,56.11778490955476,57.02540788438637,57.02540788438637,left,0.14836743369232863,49.78952496196143,S2,B-M,2023-01-25_13h57.39.520,knowing_that_K_ONLY,2022.2.5,60.002463891763306,
Does Anna know that the book is here?,Does Anna think that the book is here?,Is the book here?,early,26,no_8,no_K,0,0,0,hide,X-B-O,O-B-O,X-O-X,R,stimuli/blue-R.png,mB-L,m0,stimuli/m0_w0_X-B-O.png,stimuli/m0_wW-R_X-B-O.png,stimuli/m0_none_X-B-O.png,stimuli/mW-R_none_X-B-O.png,stimuli/mB-L_none_X-B-O.png,stimuli/mB-L_none_O-B-O.png,stimuli/mB-L_none_X-O-X.png,stimuli/mW-L_none_X-O-X.png,stimuli/m0_none_X-O-X.png,stimuli/m0_wW-L_X-O-X.png,0,2,2,25,,,,,,,,,57.19230542203877,63.864126637461595,64.60467242531013,64.60467242531013,64.60467242531013,65.49241815204732,65.49241815204732,right,0.2330407057888806,58.24279461381957,S2,B-M,2023-01-25_13h57.39.520,knowing_that_K_ONLY,2022.2.5,60.002463891763306,
Does Anna know that the book is here?,Does Anna think that the book is here?,Is the book here?,early,8,per_8,per_K,1,1,1,switch,O-X-B,B-X-O,B-X-X,L,stimuli/blue-L.png,mB-L,m0,stimuli/m0_w0_O-X-B.png,stimuli/m0_wW-R_O-X-B.png,stimuli/m0_none_O-X-B.png,stimuli/mW-R_none_O-X-B.png,stimuli/mB-L_none_O-X-B.png,stimuli/mB-L_none_B-X-O.png,stimuli/mB-L_none_B-X-X.png,stimuli/mW-L_none_B-X-X.png,stimuli/m0_none_B-X-X.png,stimuli/m0_wW-L_B-X-X.png,0,3,3,7,,,,,,,,,65.74244943028316,72.41317285934929,73.13270479557104,73.13270479557104,73.13270479557104,74.04238764371257,74.04238764371257,left,0.0753720166394487,66.79614761017729,S2,B-M,2023-01-25_13h57.39.520,knowing_that_K_ONLY,2022.2.5,60.002463891763306,
Does Anna know that the book is here?,Does Anna think that the book is here?,Is the book here?,early,27,no_9,no_K,0,0,0,hide,X-X-B,O-O-B,X-X-O,L,stimuli/blue-L.png,mB-M,m0,stimuli/m0_w0_X-X-B.png,stimuli/m0_wW-R_X-X-B.png,stimuli/m0_none_X-X-B.png,stimuli/mW-R_none_X-X-B.png,stimuli/mB-M_none_X-X-B.png,stimuli/mB-M_none_O-O-B.png,stimuli/mB-M_none_X-X-O.png,stimuli/mW-L_none_X-X-O.png,stimuli/m0_none_X-X-O.png,stimuli/m0_wW-L_X-X-O.png,0,4,4,26,,,,,,,,,74.14247227145825,80.7943921785336,81.53232567105442,81.53232567105442,81.53232567105442,82.44237904623151,82.44237904623151,right,0.018481530249118805,75.19569694681559,S2,B-M,2023-01-25_13h57.39.520,knowing_that_K_ONLY,2022.2.5,60.002463891763306,
Does Anna know that the book is here?,Does Anna think that the book is here?,Is the book here?,early,3,per_3,per_K,1,1,1,no,O-B-X,O-B-O,O-B-X,M,stimuli/blue-M.png,mB-R,m0,stimuli/m0_w0_O-B-X.png,stimuli/m0_wW-R_O-B-X.png,stimuli/m0_none_O-B-X.png,stimuli/mW-R_none_O-B-X.png,stimuli/mB-R_none_O-B-X.png,stimuli/mB-R_none_O-B-O.png,stimuli/mB-R_none_O-B-X.png,stimuli/mW-L_none_O-B-X.png,stimuli/m0_none_O-B-X.png,stimuli/m0_wW-L_O-B-X.png,0,5,5,2,,,,,,,,,82.49246595159639,89.14358256908599,89.90335533826146,89.90335533826146,89.90335533826146,90.79251869150903,90.79251869150903,left,0.26083247421775013,83.55453579546884,S2,B-M,2023-01-25_13h57.39.520,knowing_that_K_ONLY,2022.2.5,60.002463891763306,
Does Anna know that the book is here?,Does Anna think that the book is here?,Is the book here?,late,12,mem_3,mem_K,1,1,1,no,X-O-B,X-O-B,X-O-X,R,stimuli/blue-R.png,mB-M,m0,stimuli/m0_w0_X-O-B.png,stimuli/mW-R_w0_X-O-B.png,stimuli/mB-M_w0_X-O-B.png,stimuli/mB-M_w0_X-O-B.png,stimuli/mB-M_w0_X-O-X.png,stimuli/mW-L_w0_X-O-X.png,stimuli/m0_wW-R_X-O-X.png,stimuli/m0_none_X-O-X.png,stimuli/m0_none_X-O-X.png,stimuli/m0_wW-L_X-O-X.png,0,6,6,11,,,,,,,,,91.07569817861076,97.74972491175868,98.49061684554908,98.49061684554908,98.49061684554908,99.37594692897983,99.37594692897983,left,1.8450444323243573,92.13906406494789,S2,B-M,2023-01-25_13h57.39.520,knowing_that_K_ONLY,2022.2.5,60.002463891763306,
Does Anna know that the book is here?,Does Anna think that the book is here?,Is the book here?,early,25,no_7,no_K,0,0,0,hide,B-X-X,B-O-O,O-X-X,M,stimuli/blue-M.png,mB-L,m0,stimuli/m0_w0_B-X-X.png,stimuli/m0_wW-R_B-X-X.png,stimuli/m0_none_B-X-X.png,stimuli/mW-R_none_B-X-X.png,stimuli/mB-L_none_B-X-X.png,stimuli/mB-L_none_B-O-O.png,stimuli/mB-L_none_O-X-X.png,stimuli/mW-L_none_O-X-X.png,stimuli/m0_none_O-X-X.png,stimuli/m0_wW-L_O-X-X.png,0,7,7,24,,,,,,,,,101.2427028643433,107.91406084084883,108.62801337870769,108.62801337870769,108.62801337870769,109.54258365405258,109.54258365405258,right,0.710940616670996,102.29542516288348,S2,B-M,2023-01-25_13h57.39.520,knowing_that_K_ONLY,2022.2.5,60.002463891763306,
Does Anna know that the book is here?,Does Anna think that the book is here?,Is the book here?,late,14,mem_5,mem_K,1,1,1,no,O-B-X,O-B-X,O-X-X,M,stimuli/blue-M.png,mB-L,m0,stimuli/m0_w0_O-B-X.png,stimuli/mW-R_w0_O-B-X.png,stimuli/mB-L_w0_O-B-X.png,stimuli/mB-L_w0_O-B-X.png,stimuli/mB-L_w0_O-X-X.png,stimuli/mW-L_w0_O-X-X.png,stimuli/m0_wW-R_O-X-X.png,stimuli/m0_none_O-X-X.png,stimuli/m0_none_O-X-X.png,stimuli/m0_wW-L_O-X-X.png,0,8,8,13,,,,,,,,,110.27585781004746,116.95186197024304,117.68708532257006,117.68708532257006,117.68708532257006,118.57598305132706,118.57598305132706,left,0.06233460013754666,111.32809313025791,S2,B-M,2023-01-25_13h57.39.520,knowing_that_K_ONLY,2022.2.5,60.002463891763306,
Does Anna know that the book is here?,Does Anna think that the book is here?,Is the book here?,late,17,mem_8,mem_K,1,1,1,switch,O-X-B,B-X-O,X-X-O,L,stimuli/blue-L.png,mB-M,m0,stimuli/m0_w0_O-X-B.png,stimuli/mW-R_w0_O-X-B.png,stimuli/mB-M_w0_O-X-B.png,stimuli/mB-M_w0_B-X-O.png,stimuli/mB-M_w0_X-X-O.png,stimuli/mW-L_w0_X-X-O.png,stimuli/m0_wW-R_X-X-O.png,stimuli/m0_none_X-X-O.png,stimuli/m0_none_X-X-O.png,stimuli/m0_wW-L_X-X-O.png,0,9,9,16,,,,,,,,,118.65941898804158,125.33091875934042,126.0716846176656,126.0716846176656,126.0716846176656,126.95936297590379,126.95936297590379,left,0.13446802063845098,119.71867571410257,S2,B-M,2023-01-25_13h57.39.520,knowing_that_K_ONLY,2022.2.5,60.002463891763306,
Does Anna know that the book is here?,Does Anna think that the book is here?,Is the book here?,late,15,mem_6,mem_K,1,1,1,no,X-B-O,X-B-X,X-X-X,M,stimuli/blue-M.png,mB-R,m0,stimuli/m0_w0_X-B-O.png,stimuli/mW-R_w0_X-B-O.png,stimuli/mB-R_w0_X-B-O.png,stimuli/mB-R_w0_X-B-X.png,stimuli/mB-R_w0_X-X-X.png,stimuli/mW-L_w0_X-X-X.png,stimuli/m0_wW-R_X-X-X.png,stimuli/m0_none_X-X-X.png,stimuli/m0_none_X-X-X.png,stimuli/m0_wW-L_X-X-X.png,0,10,10,14,,,,,,,,,127.12591244268697,133.79673467890825,134.51475242699962,134.51475242699962,134.51475242699962,135.42578104196582,135.42578104196582,left,0.17921260080765933,128.1864883089438,S2,B-M,2023-01-25_13h57.39.520,knowing_that_K_ONLY,2022.2.5,60.002463891763306,
Does Anna know that the book is here?,Does Anna think that the book is here?,Is the book here?,early,21,no_3,no_K,0,0,0,no,X-X-O,X-O-O,X-X-O,M,stimuli/blue-M.png,mB-M,m0,stimuli/m0_w0_X-X-O.png,stimuli/m0_wW-R_X-X-O.png,stimuli/m0_none_X-X-O.png,stimuli/mW-R_none_X-X-O.png,stimuli/mB-M_none_X-X-O.png,stimuli/mB-M_none_X-O-O.png,stimuli/mB-M_none_X-X-O.png,stimuli/mW-L_none_X-X-O.png,stimuli/m0_none_X-X-O.png,stimuli/m0_wW-L_X-X-O.png,0,11,11,20,,,,,,,,,135.62589030736126,142.30041877564508,143.03837632830255,143.03837632830255,143.03837632830255,143.92590679659043,143.92590679659043,right,0.07166835095267743,136.68695186870173,S2,B-M,2023-01-25_13h57.39.520,knowing_that_K_ONLY,2022.2.5,60.002463891763306,
Does Anna know that the book is here?,Does Anna think that the book is here?,Is the book here?,early,9,per_9,per_K,1,1,1,switch,X-O-B,X-B-O,X-B-X,M,stimuli/blue-M.png,mB-R,m0,stimuli/m0_w0_X-O-B.png,stimuli/m0_wW-R_X-O-B.png,stimuli/m0_none_X-O-B.png,stimuli/mW-R_none_X-O-B.png,stimuli/mB-R_none_X-O-B.png,stimuli/mB-R_none_X-B-O.png,stimuli/mB-R_none_X-B-X.png,stimuli/mW-L_none_X-B-X.png,stimuli/m0_none_X-B-X.png,stimuli/m0_wW-L_X-B-X.png,0,12,12,8,,,,,,,,,144.02590769482777,150.67661625146866,151.43875654356088,151.43875654356088,151.43875654356088,152.32590653991792,152.32590653991792,left,0.13618784316349775,145.07779751066118,S2,B-M,2023-01-25_13h57.39.520,knowing_that_K_ONLY,2022.2.5,60.002463891763306,
Does Anna know that the book is here?,Does Anna think that the book is here?,Is the book here?,late,4,per_4,per_K,1,1,1,no,O-X-B,O-O-B,O-X-B,R,stimuli/blue-R.png,mB-M,m0,stimuli/m0_w0_O-X-B.png,stimuli/mW-R_w0_O-X-B.png,stimuli/mB-M_w0_O-X-B.png,stimuli/mB-M_w0_O-O-B.png,stimuli/mB-M_w0_O-X-B.png,stimuli/mW-L_w0_O-X-B.png,stimuli/m0_wW-R_O-X-B.png,stimuli/m0_none_O-X-B.png,stimuli/m0_none_O-X-B.png,stimuli/m0_wW-L_O-X-B.png,0,13,13,3,,,,,,,,,152.49258432770148,159.1680582013214,159.9049420277588,159.9049420277588,159.9049420277588,160.79244105727412,160.79244105727412,left,0.15675674157682806,153.5456405817531,S2,B-M,2023-01-25_13h57.39.520,knowing_that_K_ONLY,2022.2.5,60.002463891763306,
Does Anna know that the book is here?,Does Anna think that the book is here?,Is the book here?,late,18,mem_9,mem_K,1,1,1,switch,X-O-B,X-B-O,X-X-O,M,stimuli/blue-M.png,mB-L,m0,stimuli/m0_w0_X-O-B.png,stimuli/mW-R_w0_X-O-B.png,stimuli/mB-L_w0_X-O-B.png,stimuli/mB-L_w0_X-B-O.png,stimuli/mB-L_w0_X-X-O.png,stimuli/mW-L_w0_X-X-O.png,stimuli/m0_wW-R_X-X-O.png,stimuli/m0_none_X-X-O.png,stimuli/m0_none_X-X-O.png,stimuli/m0_wW-L_X-X-O.png,0,14,14,17,,,,,,,,,160.97588719555642,167.62662526604254,168.36394762957934,168.36394762957934,168.36394762957934,169.27593544428237,169.27593544428237,left,0.2655450638849288,162.02715305041056,S2,B-M,2023-01-25_13h57.39.520,knowing_that_K_ONLY,2022.2.5,60.002463891763306,
Does Anna know that the book is here?,Does Anna think that the book is here?,Is the book here?,late,10,mem_1,mem_K,1,1,1,no,O-X-B,X-X-B,X-X-X,R,stimuli/blue-R.png,mB-M,m0,stimuli/m0_w0_O-X-B.png,stimuli/mW-R_w0_O-X-B.png,stimuli/mB-M_w0_O-X-B.png,stimuli/mB-M_w0_X-X-B.png,stimuli/mB-M_w0_X-X-X.png,stimuli/mW-L_w0_X-X-X.png,stimuli/m0_wW-R_X-X-X.png,stimuli/m0_none_X-X-X.png,stimuli/m0_none_X-X-X.png,stimuli/m0_wW-L_X-X-X.png,0,15,15,9,,,,,,,,,169.5593414179748,176.20883445371874,176.97083263017703,176.97083263017703,176.97083263017703,177.85936015285552,177.85936015285552,left,0.31475681986194104,170.62504114292096,S2,B-M,2023-01-25_13h57.39.520,knowing_that_K_ONLY,2022.2.5,60.002463891763306,
Does Anna know that the book is here?,Does Anna think that the book is here?,Is the book here?,late,13,mem_4,mem_K,1,1,1,no,B-X-O,B-X-O,X-X-O,L,stimuli/blue-L.png,mB-M,m0,stimuli/m0_w0_B-X-O.png,stimuli/mW-R_w0_B-X-O.png,stimuli/mB-M_w0_B-X-O.png,stimuli/mB-M_w0_B-X-O.png,stimuli/mB-M_w0_X-X-O.png,stimuli/mW-L_w0_X-X-O.png,stimuli/m0_wW-R_X-X-O.png,stimuli/m0_none_X-X-O.png,stimuli/m0_none_X-X-O.png,stimuli/m0_wW-L_X-X-O.png,0,16,16,12,,,,,,,,,178.19259606918786,184.84211316506844,185.60062100959476,185.60062100959476,185.60062100959476,186.4925448690774,186.4925448690774,left,0.11288121552206576,179.23350770026445,S2,B-M,2023-01-25_13h57.39.520,knowing_that_K_ONLY,2022.2.5,60.002463891763306,
Does Anna know that the book is here?,Does Anna think that the book is here?,Is the book here?,late,6,per_6,per_K,1,1,1,no,X-B-X,O-B-X,X-B-X,M,stimuli/blue-M.png,mB-L,m0,stimuli/m0_w0_X-B-X.png,stimuli/mW-R_w0_X-B-X.png,stimuli/mB-L_w0_X-B-X.png,stimuli/mB-L_w0_O-B-X.png,stimuli/mB-L_w0_X-B-X.png,stimuli/mW-L_w0_X-B-X.png,stimuli/m0_wW-R_X-B-X.png,stimuli/m0_none_X-B-X.png,stimuli/m0_none_X-B-X.png,stimuli/m0_wW-L_X-B-X.png,0,17,17,5,,,,,,,,,186.6258938361425,193.29760309145786,194.0380760570988,194.0380760570988,194.0380760570988,194.92608355882112,194.92608355882112,left,0.12778762786183506,187.67459102487192,S2,B-M,2023-01-25_13h57.39.520,knowing_that_K_ONLY,2022.2.5,60.002463891763306,
Does Anna know that the book is here?,Does Anna think that the book is here?,Is the book here?,early,20,no_2,no_K,0,0,0,no,X-O-X,O-O-X,X-O-X,L,stimuli/blue-L.png,mB-L,m0,stimuli/m0_w0_X-O-X.png,stimuli/m0_wW-R_X-O-X.png,stimuli/m0_none_X-O-X.png,stimuli/mW-R_none_X-O-X.png,stimuli/mB-L_none_X-O-X.png,stimuli/mB-L_none_O-O-X.png,stimuli/mB-L_none_X-O-X.png,stimuli/mW-L_none_X-O-X.png,stimuli/m0_none_X-O-X.png,stimuli/m0_wW-L_X-O-X.png,0,18,18,19,,,,,,,,,195.07597599364817,201.74735193513334,202.46477523609065,202.46477523609065,202.46477523609065,203.37604092410766,203.37604092410766,right,0.04619662673212588,196.12942298525013,S2,B-M,2023-01-25_13h57.39.520,knowing_that_K_ONLY,2022.2.5,60.002463891763306,
Does Anna know that the book is here?,Does Anna think that the book is here?,Is the book here?,late,16,mem_7,mem_K,1,1,1,switch,B-X-O,O-X-B,O-X-X,R,stimuli/blue-R.png,mB-M,m0,stimuli/m0_w0_B-X-O.png,stimuli/mW-R_w0_B-X-O.png,stimuli/mB-M_w0_B-X-O.png,stimuli/mB-M_w0_O-X-B.png,stimuli/mB-M_w0_O-X-X.png,stimuli/mW-L_w0_O-X-X.png,stimuli/m0_wW-R_O-X-X.png,stimuli/m0_none_O-X-X.png,stimuli/m0_none_O-X-X.png,stimuli/m0_wW-L_O-X-X.png,0,19,19,15,,,,,,,,,203.44262959295884,210.09489340055734,210.83206851570867,210.83206851570867,210.83206851570867,211.74265955598094,211.74265955598094,left,0.25441546039655805,204.49928172305226,S2,B-M,2023-01-25_13h57.39.520,knowing_that_K_ONLY,2022.2.5,60.002463891763306,
Does Anna know that the book is here?,Does Anna think that the book is here?,Is the book here?,early,22,no_4,no_K,0,0,0,no,O-X-X,O-O-X,O-X-X,M,stimuli/blue-M.png,mB-M,m0,stimuli/m0_w0_O-X-X.png,stimuli/m0_wW-R_O-X-X.png,stimuli/m0_none_O-X-X.png,stimuli/mW-R_none_O-X-X.png,stimuli/mB-M_none_O-X-X.png,stimuli/mB-M_none_O-O-X.png,stimuli/mB-M_none_O-X-X.png,stimuli/mW-L_none_O-X-X.png,stimuli/m0_none_O-X-X.png,stimuli/m0_wW-L_O-X-X.png,0,20,20,21,,,,,,,,,212.02617588581052,218.6957556536654,219.41453209985048,219.41453209985048,219.41453209985048,220.3258930662414,220.3258930662414,right,0.1671744843479246,213.08351677889004,S2,B-M,2023-01-25_13h57.39.520,knowing_that_K_ONLY,2022.2.5,60.002463891763306,
Does Anna know that the book is here?,Does Anna think that the book is here?,Is the book here?,early,2,per_2,per_K,1,1,1,no,X-X-B,O-X-B,X-X-B,R,stimuli/blue-R.png,mB-L,m0,stimuli/m0_w0_X-X-B.png,stimuli/m0_wW-R_X-X-B.png,stimuli/m0_none_X-X-B.png,stimuli/mW-R_none_X-X-B.png,stimuli/mB-L_none_X-X-B.png,stimuli/mB-L_none_O-X-B.png,stimuli/mB-L_none_X-X-B.png,stimuli/mW-L_none_X-X-B.png,stimuli/m0_none_X-X-B.png,stimuli/m0_wW-L_X-X-B.png,0,21,21,1,,,,,,,,,220.5092134497827,227.16066723084077,227.92266829463188,227.92266829463188,227.92266829463188,228.80927388905548,228.80927388905548,left,0.22822417598217726,221.56897704396397,S2,B-M,2023-01-25_13h57.39.520,knowing_that_K_ONLY,2022.2.5,60.002463891763306,
Does Anna know that the book is here?,Does Anna think that the book is here?,Is the book here?,late,5,per_5,per_K,1,1,1,no,X-B-O,O-B-O,X-B-O,M,stimuli/blue-M.png,mB-L,m0,stimuli/m0_w0_X-B-O.png,stimuli/mW-R_w0_X-B-O.png,stimuli/mB-L_w0_X-B-O.png,stimuli/mB-L_w0_O-B-O.png,stimuli/mB-L_w0_X-B-O.png,stimuli/mW-L_w0_X-B-O.png,stimuli/m0_wW-R_X-B-O.png,stimuli/m0_none_X-B-O.png,stimuli/m0_none_X-B-O.png,stimuli/m0_wW-L_X-B-O.png,0,22,22,4,,,,,,,,,229.05920764326584,235.73221005382948,236.46892289246898,236.46892289246898,236.46892289246898,237.3591978267068,237.3591978267068,left,0.11806057312060148,230.11634931806475,S2,B-M,2023-01-25_13h57.39.520,knowing_that_K_ONLY,2022.2.5,60.002463891763306,
Does Anna know that the book is here?,Does Anna think that the book is here?,Is the book here?,early,24,no_6,no_K,0,0,0,no,X-X-X,X-X-O,X-X-X,R,stimuli/blue-R.png,mB-R,m0,stimuli/m0_w0_X-X-X.png,stimuli/m0_wW-R_X-X-X.png,stimuli/m0_none_X-X-X.png,stimuli/mW-R_none_X-X-X.png,stimuli/mB-R_none_X-X-X.png,stimuli/mB-R_none_X-X-O.png,stimuli/mB-R_none_X-X-X.png,stimuli/mW-L_none_X-X-X.png,stimuli/m0_none_X-X-X.png,stimuli/m0_wW-L_X-X-X.png,0,23,23,23,,,,,,,,,237.50938058795873,244.15819512621965,244.91934798797593,244.91934798797593,244.91934798797593,245.80938167870045,245.80938167870045,right,0.5000902396859601,238.55742622667458,S2,B-M,2023-01-25_13h57.39.520,knowing_that_K_ONLY,2022.2.5,60.002463891763306,
Does Anna know that the book is here?,Does Anna think that the book is here?,Is the book here?,early,19,no_1,no_K,0,0,0,no,X-X-X,O-X-X,X-X-X,L,stimuli/blue-L.png,mB-L,m0,stimuli/m0_w0_X-X-X.png,stimuli/m0_wW-R_X-X-X.png,stimuli/m0_none_X-X-X.png,stimuli/mW-R_none_X-X-X.png,stimuli/mB-L_none_X-X-X.png,stimuli/mB-L_none_O-X-X.png,stimuli/mB-L_none_X-X-X.png,stimuli/mW-L_none_X-X-X.png,stimuli/m0_none_X-X-X.png,stimuli/m0_wW-L_X-X-X.png,0,24,24,18,,,,,,,,,246.32601914159022,253.00080521439668,253.7338884929195,253.7338884929195,253.7338884929195,254.62608054326847,254.62608054326847,right,0.06783668498974293,247.37924349622335,S2,B-M,2023-01-25_13h57.39.520,knowing_that_K_ONLY,2022.2.5,60.002463891763306,
Does Anna know that the book is here?,Does Anna think that the book is here?,Is the book here?,late,11,mem_2,mem_K,1,1,1,no,O-B-O,O-B-X,O-X-X,M,stimuli/blue-M.png,mB-L,m0,stimuli/m0_w0_O-B-O.png,stimuli/mW-R_w0_O-B-O.png,stimuli/mB-L_w0_O-B-O.png,stimuli/mB-L_w0_O-B-X.png,stimuli/mB-L_w0_O-X-X.png,stimuli/mW-L_w0_O-X-X.png,stimuli/m0_wW-R_O-X-X.png,stimuli/m0_none_O-X-X.png,stimuli/m0_none_O-X-X.png,stimuli/m0_wW-L_O-X-X.png,0,25,25,10,,,,,,,,,254.72603428352159,261.3777533682296,262.11495639325585,262.11495639325585,262.11495639325585,263.0258031132398,263.0258031132398,left,0.011269888491369784,255.78505072847474,S2,B-M,2023-01-25_13h57.39.520,knowing_that_K_ONLY,2022.2.5,60.002463891763306,
Does Anna know that the book is here?,Does Anna think that the book is here?,Is the book here?,early,1,per_1,per_K,1,1,1,no,B-X-X,B-O-X,B-X-X,L,stimuli/blue-L.png,mB-M,m0,stimuli/m0_w0_B-X-X.png,stimuli/m0_wW-R_B-X-X.png,stimuli/m0_none_B-X-X.png,stimuli/mW-R_none_B-X-X.png,stimuli/mB-M_none_B-X-X.png,stimuli/mB-M_none_B-O-X.png,stimuli/mB-M_none_B-X-X.png,stimuli/mW-L_none_B-X-X.png,stimuli/m0_none_B-X-X.png,stimuli/m0_wW-L_B-X-X.png,0,26,26,0,,,,,,,,,263.0590796431061,269.7327018441865,270.4737365350593,270.4737365350593,270.4737365350593,271.35957541142125,271.35957541142125,left,0.5344302300363779,264.11592425464187,S2,B-M,2023-01-25_13h57.39.520,knowing_that_K_ONLY,2022.2.5,60.002463891763306,
Does Anna know that the book is here?,Does Anna think that the book is here?,Is the book here?,early,28,no_10,no_K,0,0,0,hide,O-B-O,O-B-O,X-O-X,L,stimuli/blue-L.png,mB-M,m0,stimuli/m0_w0_O-B-O.png,stimuli/m0_wW-R_O-B-O.png,stimuli/m0_none_O-B-O.png,stimuli/mW-R_none_O-B-O.png,stimuli/mB-M_none_O-B-O.png,stimuli/mB-M_none_O-B-O.png,stimuli/mB-M_none_X-O-X.png,stimuli/mW-L_none_X-O-X.png,stimuli/m0_none_X-O-X.png,stimuli/m0_wW-L_X-O-X.png,0,27,27,27,,,,,,,,,271.92606366903055,278.6019417537609,279.33864881808404,279.33864881808404,279.33864881808404,280.2262655821396,280.2262655821396,right,0.16482203907798976,272.98854189459234,S2,B-M,2023-01-25_13h57.39.520,knowing_that_K_ONLY,2022.2.5,60.002463891763306,
Does Anna know that the book is here?,Does Anna think that the book is here?,Is the book here?,early,20,no_2,no_K,0,0,0,no,X-O-X,O-O-X,X-O-X,L,stimuli/blue-L.png,mB-L,m0,stimuli/m0_w0_X-O-X.png,stimuli/m0_wW-R_X-O-X.png,stimuli/m0_none_X-O-X.png,stimuli/mW-R_none_X-O-X.png,stimuli/mB-L_none_X-O-X.png,stimuli/mB-L_none_O-O-X.png,stimuli/mB-L_none_X-O-X.png,stimuli/mW-L_none_X-O-X.png,stimuli/m0_none_X-O-X.png,stimuli/m0_wW-L_X-O-X.png,1,0,28,19,,,,,,,,,280.40947849687655,287.08338492910843,287.8225028247107,287.8225028247107,287.8225028247107,288.7094240888255,288.7094240888255,right,0.15976105770096183,281.4626210468123,S2,B-M,2023-01-25_13h57.39.520,knowing_that_K_ONLY,2022.2.5,60.002463891763306,
Does Anna know that the book is here?,Does Anna think that the book is here?,Is the book here?,late,14,mem_5,mem_K,1,1,1,no,O-B-X,O-B-X,O-X-X,M,stimuli/blue-M.png,mB-L,m0,stimuli/m0_w0_O-B-X.png,stimuli/mW-R_w0_O-B-X.png,stimuli/mB-L_w0_O-B-X.png,stimuli/mB-L_w0_O-B-X.png,stimuli/mB-L_w0_O-X-X.png,stimuli/mW-L_w0_O-X-X.png,stimuli/m0_wW-R_O-X-X.png,stimuli/m0_none_O-X-X.png,stimuli/m0_none_O-X-X.png,stimuli/m0_wW-L_O-X-X.png,1,1,29,13,,,,,,,,,288.89278553507756,295.54309308854863,296.304586321814,296.304586321814,296.304586321814,297.1928350670496,297.1928350670496,left,0.07694908196572214,289.9454077432165,S2,B-M,2023-01-25_13h57.39.520,knowing_that_K_ONLY,2022.2.5,60.002463891763306,
Does Anna know that the book is here?,Does Anna think that the book is here?,Is the book here?,late,13,mem_4,mem_K,1,1,1,no,B-X-O,B-X-O,X-X-O,L,stimuli/blue-L.png,mB-M,m0,stimuli/m0_w0_B-X-O.png,stimuli/mW-R_w0_B-X-O.png,stimuli/mB-M_w0_B-X-O.png,stimuli/mB-M_w0_B-X-O.png,stimuli/mB-M_w0_X-X-O.png,stimuli/mW-L_w0_X-X-O.png,stimuli/m0_wW-R_X-X-O.png,stimuli/m0_none_X-X-O.png,stimuli/m0_none_X-X-O.png,stimuli/m0_wW-L_X-X-O.png,1,2,30,12,,,,,,,,,297.29290301306173,303.9653648711974,304.68141674110666,304.68141674110666,304.68141674110666,305.5928964044433,305.5928964044433,left,0.045191552373580635,298.3519111170899,S2,B-M,2023-01-25_13h57.39.520,knowing_that_K_ONLY,2022.2.5,60.002463891763306,
Does Anna know that the book is here?,Does Anna think that the book is here?,Is the book here?,late,4,per_4,per_K,1,1,1,no,O-X-B,O-O-B,O-X-B,R,stimuli/blue-R.png,mB-M,m0,stimuli/m0_w0_O-X-B.png,stimuli/mW-R_w0_O-X-B.png,stimuli/mB-M_w0_O-X-B.png,stimuli/mB-M_w0_O-O-B.png,stimuli/mB-M_w0_O-X-B.png,stimuli/mW-L_w0_O-X-B.png,stimuli/m0_wW-R_O-X-B.png,stimuli/m0_none_O-X-B.png,stimuli/m0_none_O-X-B.png,stimuli/m0_wW-L_O-X-B.png,1,3,31,3,,,,,,,,,305.6594488227274,312.3117113469634,313.05010583275,313.05010583275,313.05010583275,313.95949963782914,313.95949963782914,left,0.2700853827409446,306.7242977791466,S2,B-M,2023-01-25_13h57.39.520,knowing_that_K_ONLY,2022.2.5,60.002463891763306,
Does Anna know that the book is here?,Does Anna think that the book is here?,Is the book here?,early,8,per_8,per_K,1,1,1,switch,O-X-B,B-X-O,B-X-X,L,stimuli/blue-L.png,mB-L,m0,stimuli/m0_w0_O-X-B.png,stimuli/m0_wW-R_O-X-B.png,stimuli/m0_none_O-X-B.png,stimuli/mW-R_none_O-X-B.png,stimuli/mB-L_none_O-X-B.png,stimuli/mB-L_none_B-X-O.png,stimuli/mB-L_none_B-X-X.png,stimuli/mW-L_none_B-X-X.png,stimuli/m0_none_B-X-X.png,stimuli/m0_wW-L_B-X-X.png,1,4,32,7,,,,,,,,,314.259728177567,320.91003123973496,321.66938632389065,321.66938632389065,321.66938632389065,322.5595063104993,322.5595063104993,left,0.06989976635668427,315.32136397552676,S2,B-M,2023-01-25_13h57.39.520,knowing_that_K_ONLY,2022.2.5,60.002463891763306,
Does Anna know that the book is here?,Does Anna think that the book is here?,Is the book here?,late,11,mem_2,mem_K,1,1,1,no,O-B-O,O-B-X,O-X-X,M,stimuli/blue-M.png,mB-L,m0,stimuli/m0_w0_O-B-O.png,stimuli/mW-R_w0_O-B-O.png,stimuli/mB-L_w0_O-B-O.png,stimuli/mB-L_w0_O-B-X.png,stimuli/mB-L_w0_O-X-X.png,stimuli/mW-L_w0_O-X-X.png,stimuli/m0_wW-R_O-X-X.png,stimuli/m0_none_O-X-X.png,stimuli/m0_none_O-X-X.png,stimuli/m0_wW-L_O-X-X.png,1,5,33,10,,,,,,,,,322.6596441913862,329.3305395706557,330.04777552292217,330.04777552292217,330.04777552292217,330.9596202595858,330.9596202595858,left,0.47771618515253067,323.71249930222984,S2,B-M,2023-01-25_13h57.39.520,knowing_that_K_ONLY,2022.2.5,60.002463891763306,
Does Anna know that the book is here?,Does Anna think that the book is here?,Is the book here?,early,26,no_8,no_K,0,0,0,hide,X-B-O,O-B-O,X-O-X,R,stimuli/blue-R.png,mB-L,m0,stimuli/m0_w0_X-B-O.png,stimuli/m0_wW-R_X-B-O.png,stimuli/m0_none_X-B-O.png,stimuli/mW-R_none_X-B-O.png,stimuli/mB-L_none_X-B-O.png,stimuli/mB-L_none_O-B-O.png,stimuli/mB-L_none_X-O-X.png,stimuli/mW-L_none_X-O-X.png,stimuli/m0_none_X-O-X.png,stimuli/m0_wW-L_X-O-X.png,1,6,34,25,,,,,,,,,331.45933442446403,338.1337114740163,338.86756275373045,338.86756275373045,338.86756275373045,339.7598167191027,339.7598167191027,right,0.29475317569449544,332.5085779399378,S2,B-M,2023-01-25_13h57.39.520,knowing_that_K_ONLY,2022.2.5,60.002463891763306,
Does Anna know that the book is here?,Does Anna think that the book is here?,Is the book here?,early,24,no_6,no_K,0,0,0,no,X-X-X,X-X-O,X-X-X,R,stimuli/blue-R.png,mB-R,m0,stimuli/m0_w0_X-X-X.png,stimuli/m0_wW-R_X-X-X.png,stimuli/m0_none_X-X-X.png,stimuli/mW-R_none_X-X-X.png,stimuli/mB-R_none_X-X-X.png,stimuli/mB-R_none_X-X-O.png,stimuli/mB-R_none_X-X-X.png,stimuli/mW-L_none_X-X-X.png,stimuli/m0_none_X-X-X.png,stimuli/m0_wW-L_X-X-X.png,1,7,35,23,,,,,,,,,340.0761566055007,346.7277813743567,347.4872317368863,347.4872317368863,347.4872317368863,348.37619843822904,348.37619843822904,right,0.31719620269723237,341.1349010099657,S2,B-M,2023-01-25_13h57.39.520,knowing_that_K_ONLY,2022.2.5,60.002463891763306,
Does Anna know that the book is here?,Does Anna think that the book is here?,Is the book here?,early,22,no_4,no_K,0,0,0,no,O-X-X,O-O-X,O-X-X,M,stimuli/blue-M.png,mB-M,m0,stimuli/m0_w0_O-X-X.png,stimuli/m0_wW-R_O-X-X.png,stimuli/m0_none_O-X-X.png,stimuli/mW-R_none_O-X-X.png,stimuli/mB-M_none_O-X-X.png,stimuli/mB-M_none_O-O-X.png,stimuli/mB-M_none_O-X-X.png,stimuli/mW-L_none_O-X-X.png,stimuli/m0_none_O-X-X.png,stimuli/m0_wW-L_O-X-X.png,1,8,36,21,,,,,,,,,348.7097012621816,355.38522261451,356.1204854255775,356.1204854255775,356.1204854255775,357.00969208730385,357.00969208730385,right,0.4684494821121916,349.7719234873075,S2,B-M,2023-01-25_13h57.39.520,knowing_that_K_ONLY,2022.2.5,60.002463891763306,
Does Anna know that the book is here?,Does Anna think that the book is here?,Is the book here?,late,16,mem_7,mem_K,1,1,1,switch,B-X-O,O-X-B,O-X-X,R,stimuli/blue-R.png,mB-M,m0,stimuli/m0_w0_B-X-O.png,stimuli/mW-R_w0_B-X-O.png,stimuli/mB-M_w0_B-X-O.png,stimuli/mB-M_w0_O-X-B.png,stimuli/mB-M_w0_O-X-X.png,stimuli/mW-L_w0_O-X-X.png,stimuli/m0_wW-R_O-X-X.png,stimuli/m0_none_O-X-X.png,stimuli/m0_none_O-X-X.png,stimuli/m0_wW-L_O-X-X.png,1,9,37,15,,,,,,,,,357.50940272340085,364.18641837406904,364.9217068493599,364.9217068493599,364.9217068493599,365.80957608507015,365.80957608507015,left,0.18173635471612215,358.57075717742555,S2,B-M,2023-01-25_13h57.39.520,knowing_that_K_ONLY,2022.2.5,60.002463891763306,
Does Anna know that the book is here?,Does Anna think that the book is here?,Is the book here?,early,1,per_1,per_K,1,1,1,no,B-X-X,B-O-X,B-X-X,L,stimuli/blue-L.png,mB-M,m0,stimuli/m0_w0_B-X-X.png,stimuli/m0_wW-R_B-X-X.png,stimuli/m0_none_B-X-X.png,stimuli/mW-R_none_B-X-X.png,stimuli/mB-M_none_B-X-X.png,stimuli/mB-M_none_B-O-X.png,stimuli/mB-M_none_B-X-X.png,stimuli/mW-L_none_B-X-X.png,stimuli/m0_none_B-X-X.png,stimuli/m0_wW-L_B-X-X.png,1,10,38,0,,,,,,,,,366.0095859016292,372.6700186257949,373.399860835867,373.399860835867,373.399860835867,374.30943557352293,374.30943557352293,left,0.11314651928842068,367.06636763585266,S2,B-M,2023-01-25_13h57.39.520,knowing_that_K_ONLY,2022.2.5,60.002463891763306,
Does Anna know that the book is here?,Does Anna think that the book is here?,Is the book here?,early,25,no_7,no_K,0,0,0,hide,B-X-X,B-O-O,O-X-X,M,stimuli/blue-M.png,mB-L,m0,stimuli/m0_w0_B-X-X.png,stimuli/m0_wW-R_B-X-X.png,stimuli/m0_none_B-X-X.png,stimuli/mW-R_none_B-X-X.png,stimuli/mB-L_none_B-X-X.png,stimuli/mB-L_none_B-O-O.png,stimuli/mB-L_none_O-X-X.png,stimuli/mW-L_none_O-X-X.png,stimuli/m0_none_O-X-X.png,stimuli/m0_wW-L_O-X-X.png,1,11,39,24,,,,,,,,,374.44296034041326,381.11307937745005,381.83117925096303,381.83117925096303,381.83117925096303,382.74277985689696,382.74277985689696,right,0.0324268180411309,375.4958529851865,S2,B-M,2023-01-25_13h57.39.520,knowing_that_K_ONLY,2022.2.5,60.002463891763306,
Does Anna know that the book is here?,Does Anna think that the book is here?,Is the book here?,early,9,per_9,per_K,1,1,1,switch,X-O-B,X-B-O,X-B-X,M,stimuli/blue-M.png,mB-R,m0,stimuli/m0_w0_X-O-B.png,stimuli/m0_wW-R_X-O-B.png,stimuli/m0_none_X-O-B.png,stimuli/mW-R_none_X-O-B.png,stimuli/mB-R_none_X-O-B.png,stimuli/mB-R_none_X-B-O.png,stimuli/mB-R_none_X-B-X.png,stimuli/mW-L_none_X-B-X.png,stimuli/m0_none_X-B-X.png,stimuli/m0_wW-L_X-B-X.png,1,12,40,8,,,,,,,,,382.79277886240743,389.4675652560545,390.20401375344954,390.20401375344954,390.20401375344954,391.0930786203826,391.0930786203826,left,0.18636329006403685,383.8441659806995,S2,B-M,2023-01-25_13h57.39.520,knowing_that_K_ONLY,2022.2.5,60.002463891763306,
Does Anna know that the book is here?,Does Anna think that the book is here?,Is the book here?,early,3,per_3,per_K,1,1,1,no,O-B-X,O-B-O,O-B-X,M,stimuli/blue-M.png,mB-R,m0,stimuli/m0_w0_O-B-X.png,stimuli/m0_wW-R_O-B-X.png,stimuli/m0_none_O-B-X.png,stimuli/mW-R_none_O-B-X.png,stimuli/mB-R_none_O-B-X.png,stimuli/mB-R_none_O-B-O.png,stimuli/mB-R_none_O-B-X.png,stimuli/mW-L_none_O-B-X.png,stimuli/m0_none_O-B-X.png,stimuli/m0_wW-L_O-B-X.png,1,13,41,2,,,,,,,,,391.3097111429088,397.9603866569232,398.697717361385,398.697717361385,398.697717361385,399.6096342786914,399.6096342786914,left,0.07610601291526109,392.3672008884605,S2,B-M,2023-01-25_13h57.39.520,knowing_that_K_ONLY,2022.2.5,60.002463891763306,
Does Anna know that the book is here?,Does Anna think that the book is here?,Is the book here?,early,23,no_5,no_K,0,0,0,no,X-O-X,X-O-O,X-O-X,R,stimuli/blue-R.png,mB-R,m0,stimuli/m0_w0_X-O-X.png,stimuli/m0_wW-R_X-O-X.png,stimuli/m0_none_X-O-X.png,stimuli/mW-R_none_X-O-X.png,stimuli/mB-R_none_X-O-X.png,stimuli/mB-R_none_X-O-O.png,stimuli/mB-R_none_X-O-X.png,stimuli/mW-L_none_X-O-X.png,stimuli/m0_none_X-O-X.png,stimuli/m0_wW-L_X-O-X.png,1,14,42,22,,,,,,,,,399.70991363353096,406.3575254828902,407.1221561654238,407.1221561654238,407.1221561654238,408.0092881968012,408.0092881968012,right,0.004533996805548668,400.76908823417034,S2,B-M,2023-01-25_13h57.39.520,knowing_that_K_ONLY,2022.2.5,60.002463891763306,
Does Anna know that the book is here?,Does Anna think that the book is here?,Is the book here?,early,21,no_3,no_K,0,0,0,no,X-X-O,X-O-O,X-X-O,M,stimuli/blue-M.png,mB-M,m0,stimuli/m0_w0_X-X-O.png,stimuli/m0_wW-R_X-X-O.png,stimuli/m0_none_X-X-O.png,stimuli/mW-R_none_X-X-O.png,stimuli/mB-M_none_X-X-O.png,stimuli/mB-M_none_X-O-O.png,stimuli/mB-M_none_X-X-O.png,stimuli/mW-L_none_X-X-O.png,stimuli/m0_none_X-X-O.png,stimuli/m0_wW-L_X-X-O.png,1,15,43,20,,,,,,,,,408.0429278751835,414.6932193884859,415.4557395108277,415.4557395108277,415.4557395108277,416.3429722742876,416.3429722742876,right,0.06286905717570335,409.1044276528992,S2,B-M,2023-01-25_13h57.39.520,knowing_that_K_ONLY,2022.2.5,60.002463891763306,
Does Anna know that the book is here?,Does Anna think that the book is here?,Is the book here?,late,17,mem_8,mem_K,1,1,1,switch,O-X-B,B-X-O,X-X-O,L,stimuli/blue-L.png,mB-M,m0,stimuli/m0_w0_O-X-B.png,stimuli/mW-R_w0_O-X-B.png,stimuli/mB-M_w0_O-X-B.png,stimuli/mB-M_w0_B-X-O.png,stimuli/mB-M_w0_X-X-O.png,stimuli/mW-L_w0_X-X-O.png,stimuli/m0_wW-R_X-X-O.png,stimuli/m0_none_X-X-O.png,stimuli/m0_none_X-X-O.png,stimuli/m0_wW-L_X-X-O.png,1,16,44,16,,,,,,,,,416.4262632082682,423.077268186491,423.836955942912,423.836955942912,423.836955942912,424.7262771311216,424.7262771311216,left,0.14306328387465328,417.48347578034736,S2,B-M,2023-01-25_13h57.39.520,knowing_that_K_ONLY,2022.2.5,60.002463891763306,
Does Anna know that the book is here?,Does Anna think that the book is here?,Is the book here?,early,7,per_7,per_K,1,1,1,switch,B-X-O,O-X-B,X-X-B,R,stimuli/blue-R.png,mB-R,m0,stimuli/m0_w0_B-X-O.png,stimuli/m0_wW-R_B-X-O.png,stimuli/m0_none_B-X-O.png,stimuli/mW-R_none_B-X-O.png,stimuli/mB-R_none_B-X-O.png,stimuli/mB-R_none_O-X-B.png,stimuli/mB-R_none_X-X-B.png,stimuli/mW-L_none_X-X-B.png,stimuli/m0_none_X-X-B.png,stimuli/m0_wW-L_X-X-B.png,1,17,45,6,,,,,,,,,424.8930091345683,431.5446130511118,432.30820497486275,432.30820497486275,432.30820497486275,433.19305994967,433.19305994967,left,0.38127202505711466,425.948414946557,S2,B-M,2023-01-25_13h57.39.520,knowing_that_K_ONLY,2022.2.5,60.002463891763306,
Does Anna know that the book is here?,Does Anna think that the book is here?,Is the book here?,late,5,per_5,per_K,1,1,1,no,X-B-O,O-B-O,X-B-O,M,stimuli/blue-M.png,mB-L,m0,stimuli/m0_w0_X-B-O.png,stimuli/mW-R_w0_X-B-O.png,stimuli/mB-L_w0_X-B-O.png,stimuli/mB-L_w0_O-B-O.png,stimuli/mB-L_w0_X-B-O.png,stimuli/mW-L_w0_X-B-O.png,stimuli/m0_wW-R_X-B-O.png,stimuli/m0_none_X-B-O.png,stimuli/m0_none_X-B-O.png,stimuli/m0_wW-L_X-B-O.png,1,18,46,4,,,,,,,,,433.5930580890272,440.26640472060535,441.0067022072617,441.0067022072617,441.0067022072617,441.89306302939076,441.89306302939076,left,0.5843474309658632,434.6477122606011,S2,B-M,2023-01-25_13h57.39.520,knowing_that_K_ONLY,2022.2.5,60.002463891763306,
Does Anna know that the book is here?,Does Anna think that the book is here?,Is the book here?,early,28,no_10,no_K,0,0,0,hide,O-B-O,O-B-O,X-O-X,L,stimuli/blue-L.png,mB-M,m0,stimuli/m0_w0_O-B-O.png,stimuli/m0_wW-R_O-B-O.png,stimuli/m0_none_O-B-O.png,stimuli/mW-R_none_O-B-O.png,stimuli/mB-M_none_O-B-O.png,stimuli/mB-M_none_O-B-O.png,stimuli/mB-M_none_X-O-X.png,stimuli/mW-L_none_X-O-X.png,stimuli/m0_none_X-O-X.png,stimuli/m0_wW-L_X-O-X.png,1,19,47,27,,,,,,,,,442.5097546437755,449.15908214531373,449.9203572329134,449.9203572329134,449.9203572329134,450.8097361655673,450.8097361655673,right,0.18054393155034631,443.57083737815265,S2,B-M,2023-01-25_13h57.39.520,knowing_that_K_ONLY,2022.2.5,60.002463891763306,
Does Anna know that the book is here?,Does Anna think that the book is here?,Is the book here?,late,12,mem_3,mem_K,1,1,1,no,X-O-B,X-O-B,X-O-X,R,stimuli/blue-R.png,mB-M,m0,stimuli/m0_w0_X-O-B.png,stimuli/mW-R_w0_X-O-B.png,stimuli/mB-M_w0_X-O-B.png,stimuli/mB-M_w0_X-O-B.png,stimuli/mB-M_w0_X-O-X.png,stimuli/mW-L_w0_X-O-X.png,stimuli/m0_wW-R_X-O-X.png,stimuli/m0_none_X-O-X.png,stimuli/m0_none_X-O-X.png,stimuli/m0_wW-L_X-O-X.png,1,20,48,11,,,,,,,,,451.00968374637887,457.68423210445326,458.4204172230093,458.4204172230093,458.4204172230093,459.3097329575103,459.3097329575103,left,0.023701950442045927,452.0716878257226,S2,B-M,2023-01-25_13h57.39.520,knowing_that_K_ONLY,2022.2.5,60.002463891763306,
Does Anna know that the book is here?,Does Anna think that the book is here?,Is the book here?,late,10,mem_1,mem_K,1,1,1,no,O-X-B,X-X-B,X-X-X,R,stimuli/blue-R.png,mB-M,m0,stimuli/m0_w0_O-X-B.png,stimuli/mW-R_w0_O-X-B.png,stimuli/mB-M_w0_O-X-B.png,stimuli/mB-M_w0_X-X-B.png,stimuli/mB-M_w0_X-X-X.png,stimuli/mW-L_w0_X-X-X.png,stimuli/m0_wW-R_X-X-X.png,stimuli/m0_none_X-X-X.png,stimuli/m0_none_X-X-X.png,stimuli/m0_wW-L_X-X-X.png,1,21,49,9,,,,,,,,,459.3597139980411,466.03127792989835,466.773892252706,466.773892252706,466.773892252706,467.65979561023414,467.65979561023414,left,0.02593216998502612,460.4174940699013,S2,B-M,2023-01-25_13h57.39.520,knowing_that_K_ONLY,2022.2.5,60.002463891763306,
Does Anna know that the book is here?,Does Anna think that the book is here?,Is the book here?,late,15,mem_6,mem_K,1,1,1,no,X-B-O,X-B-X,X-X-X,M,stimuli/blue-M.png,mB-R,m0,stimuli/m0_w0_X-B-O.png,stimuli/mW-R_w0_X-B-O.png,stimuli/mB-R_w0_X-B-O.png,stimuli/mB-R_w0_X-B-X.png,stimuli/mB-R_w0_X-X-X.png,stimuli/mW-L_w0_X-X-X.png,stimuli/m0_wW-R_X-X-X.png,stimuli/m0_none_X-X-X.png,stimuli/m0_none_X-X-X.png,stimuli/m0_wW-L_X-X-X.png,1,22,50,14,,,,,,,,,467.70986230508424,474.38257631415036,475.09821755671874,475.09821755671874,475.09821755671874,476.0097661926411,476.0097661926411,left,0.17213890422135592,468.7637141494779,S2,B-M,2023-01-25_13h57.39.520,knowing_that_K_ONLY,2022.2.5,60.002463891763306,
Does Anna know that the book is here?,Does Anna think that the book is here?,Is the book here?,early,27,no_9,no_K,0,0,0,hide,X-X-B,O-O-B,X-X-O,L,stimuli/blue-L.png,mB-M,m0,stimuli/m0_w0_X-X-B.png,stimuli/m0_wW-R_X-X-B.png,stimuli/m0_none_X-X-B.png,stimuli/mW-R_none_X-X-B.png,stimuli/mB-M_none_X-X-B.png,stimuli/mB-M_none_O-O-B.png,stimuli/mB-M_none_X-X-O.png,stimuli/mW-L_none_X-X-O.png,stimuli/m0_none_X-X-O.png,stimuli/m0_wW-L_X-X-O.png,1,23,51,26,,,,,,,,,476.2098821948748,482.8813418658683,483.5978165535489,483.5978165535489,483.5978165535489,484.50976073904894,484.50976073904894,right,0.04030348360538483,477.2668833581265,S2,B-M,2023-01-25_13h57.39.520,knowing_that_K_ONLY,2022.2.5,60.002463891763306,
Does Anna know that the book is here?,Does Anna think that the book is here?,Is the book here?,late,6,per_6,per_K,1,1,1,no,X-B-X,O-B-X,X-B-X,M,stimuli/blue-M.png,mB-L,m0,stimuli/m0_w0_X-B-X.png,stimuli/mW-R_w0_X-B-X.png,stimuli/mB-L_w0_X-B-X.png,stimuli/mB-L_w0_O-B-X.png,stimuli/mB-L_w0_X-B-X.png,stimuli/mW-L_w0_X-B-X.png,stimuli/m0_wW-R_X-B-X.png,stimuli/m0_none_X-B-X.png,stimuli/m0_none_X-B-X.png,stimuli/m0_wW-L_X-B-X.png,1,24,52,5,,,,,,,,,484.57625445036683,491.2255126585951,491.99109548307024,491.99109548307024,491.99109548307024,492.8766594314948,492.8766594314948,left,0.28186974429991096,485.6402715657605,S2,B-M,2023-01-25_13h57.39.520,knowing_that_K_ONLY,2022.2.5,60.002463891763306,
Does Anna know that the book is here?,Does Anna think that the book is here?,Is the book here?,early,2,per_2,per_K,1,1,1,no,X-X-B,O-X-B,X-X-B,R,stimuli/blue-R.png,mB-L,m0,stimuli/m0_w0_X-X-B.png,stimuli/m0_wW-R_X-X-B.png,stimuli/m0_none_X-X-B.png,stimuli/mW-R_none_X-X-B.png,stimuli/mB-L_none_X-X-B.png,stimuli/mB-L_none_O-X-B.png,stimuli/mB-L_none_X-X-B.png,stimuli/mW-L_none_X-X-B.png,stimuli/m0_none_X-X-B.png,stimuli/m0_wW-L_X-X-B.png,1,25,53,1,,,,,,,,,493.1756185555132,499.85188801935874,500.59086476184893,500.59086476184893,500.59086476184893,501.4598060043063,501.4598060043063,left,0.906429041759111,494.2424394853879,S2,B-M,2023-01-25_13h57.39.520,knowing_that_K_ONLY,2022.2.5,60.002463891763306,
Does Anna know that the book is here?,Does Anna think that the book is here?,Is the book here?,early,19,no_1,no_K,0,0,0,no,X-X-X,O-X-X,X-X-X,L,stimuli/blue-L.png,mB-L,m0,stimuli/m0_w0_X-X-X.png,stimuli/m0_wW-R_X-X-X.png,stimuli/m0_none_X-X-X.png,stimuli/mW-R_none_X-X-X.png,stimuli/mB-L_none_X-X-X.png,stimuli/mB-L_none_O-X-X.png,stimuli/mB-L_none_X-X-X.png,stimuli/mW-L_none_X-X-X.png,stimuli/m0_none_X-X-X.png,stimuli/m0_wW-L_X-X-X.png,1,26,54,18,,,,,,,,,502.3934014760889,509.04408757656347,509.80240775155835,509.80240775155835,509.80240775155835,510.69315875682514,510.69315875682514,right,0.36174156446941197,503.44585430040024,S2,B-M,2023-01-25_13h57.39.520,knowing_that_K_ONLY,2022.2.5,60.002463891763306,
Does Anna know that the book is here?,Does Anna think that the book is here?,Is the book here?,late,18,mem_9,mem_K,1,1,1,switch,X-O-B,X-B-O,X-X-O,M,stimuli/blue-M.png,mB-L,m0,stimuli/m0_w0_X-O-B.png,stimuli/mW-R_w0_X-O-B.png,stimuli/mB-L_w0_X-O-B.png,stimuli/mB-L_w0_X-B-O.png,stimuli/mB-L_w0_X-X-O.png,stimuli/mW-L_w0_X-X-O.png,stimuli/m0_wW-R_X-X-O.png,stimuli/m0_none_X-X-O.png,stimuli/m0_none_X-X-O.png,stimuli/m0_wW-L_X-X-O.png,1,27,55,17,,,,,,,,,511.0764539894881,517.7500174837187,518.4892874397337,518.4892874397337,518.4892874397337,519.3764974261867,519.3764974261867,left,0.26164635026361793,512.132624594844,S2,B-M,2023-01-25_13h57.39.520,knowing_that_K_ONLY,2022.2.5,60.002463891763306,
Does Anna know that the book is here?,Does Anna think that the book is here?,Is the book here?,late,13,mem_4,mem_K,1,1,1,no,B-X-O,B-X-O,X-X-O,L,stimuli/blue-L.png,mB-M,m0,stimuli/m0_w0_B-X-O.png,stimuli/mW-R_w0_B-X-O.png,stimuli/mB-M_w0_B-X-O.png,stimuli/mB-M_w0_B-X-O.png,stimuli/mB-M_w0_X-X-O.png,stimuli/mW-L_w0_X-X-O.png,stimuli/m0_wW-R_X-X-O.png,stimuli/m0_none_X-X-O.png,stimuli/m0_none_X-X-O.png,stimuli/m0_wW-L_X-X-O.png,2,0,56,12,,,,,,,,,519.6598033094779,526.3108560873661,527.0721950145671,527.0721950145671,527.0721950145671,527.9598480294226,527.9598480294226,left,0.06998894945718348,520.7186997743556,S2,B-M,2023-01-25_13h57.39.520,knowing_that_K_ONLY,2022.2.5,60.002463891763306,
Does Anna know that the book is here?,Does Anna think that the book is here?,Is the book here?,late,12,mem_3,mem_K,1,1,1,no,X-O-B,X-O-B,X-O-X,R,stimuli/blue-R.png,mB-M,m0,stimuli/m0_w0_X-O-B.png,stimuli/mW-R_w0_X-O-B.png,stimuli/mB-M_w0_X-O-B.png,stimuli/mB-M_w0_X-O-B.png,stimuli/mB-M_w0_X-O-X.png,stimuli/mW-L_w0_X-O-X.png,stimuli/m0_wW-R_X-O-X.png,stimuli/m0_none_X-O-X.png,stimuli/m0_none_X-O-X.png,stimuli/m0_wW-L_X-O-X.png,2,1,57,11,,,,,,,,,528.0600401259726,534.7329812631942,535.4719942563679,535.4719942563679,535.4719942563679,536.3600912619149,536.3600912619149,left,0.10128741071093827,529.1235211803578,S2,B-M,2023-01-25_13h57.39.520,knowing_that_K_ONLY,2022.2.5,60.002463891763306,
Does Anna know that the book is here?,Does Anna think that the book is here?,Is the book here?,late,6,per_6,per_K,1,1,1,no,X-B-X,O-B-X,X-B-X,M,stimuli/blue-M.png,mB-L,m0,stimuli/m0_w0_X-B-X.png,stimuli/mW-R_w0_X-B-X.png,stimuli/mB-L_w0_X-B-X.png,stimuli/mB-L_w0_O-B-X.png,stimuli/mB-L_w0_X-B-X.png,stimuli/mW-L_w0_X-B-X.png,stimuli/m0_wW-R_X-B-X.png,stimuli/m0_none_X-B-X.png,stimuli/m0_none_X-B-X.png,stimuli/m0_wW-L_X-B-X.png,2,2,58,5,,,,,,,,,536.493406865513,543.1445950220805,543.8816822373774,543.8816822373774,543.8816822373774,544.79322189081,544.79322189081,left,0.404656607657671,537.5539057392161,S2,B-M,2023-01-25_13h57.39.520,knowing_that_K_ONLY,2022.2.5,60.002463891763306,
Does Anna know that the book is here?,Does Anna think that the book is here?,Is the book here?,early,28,no_10,no_K,0,0,0,hide,O-B-O,O-B-O,X-O-X,L,stimuli/blue-L.png,mB-M,m0,stimuli/m0_w0_O-B-O.png,stimuli/m0_wW-R_O-B-O.png,stimuli/m0_none_O-B-O.png,stimuli/mW-R_none_O-B-O.png,stimuli/mB-M_none_O-B-O.png,stimuli/mB-M_none_O-B-O.png,stimuli/mB-M_none_X-O-X.png,stimuli/mW-L_none_X-O-X.png,stimuli/m0_none_X-O-X.png,stimuli/m0_wW-L_X-O-X.png,2,3,59,27,,,,,,,,,545.2264965600334,551.8771223495714,552.638978089788,552.638978089788,552.638978089788,553.5265675857663,553.5265675857663,right,0.024136317195370793,546.2874378204579,S2,B-M,2023-01-25_13h57.39.520,knowing_that_K_ONLY,2022.2.5,60.002463891763306,
Does Anna know that the book is here?,Does Anna think that the book is here?,Is the book here?,late,17,mem_8,mem_K,1,1,1,switch,O-X-B,B-X-O,X-X-O,L,stimuli/blue-L.png,mB-M,m0,stimuli/m0_w0_O-X-B.png,stimuli/mW-R_w0_O-X-B.png,stimuli/mB-M_w0_O-X-B.png,stimuli/mB-M_w0_B-X-O.png,stimuli/mB-M_w0_X-X-O.png,stimuli/mW-L_w0_X-X-O.png,stimuli/m0_wW-R_X-X-O.png,stimuli/m0_none_X-X-O.png,stimuli/m0_none_X-X-O.png,stimuli/m0_wW-L_X-X-O.png,2,4,60,16,,,,,,,,,553.5765608167276,560.2306855999632,560.9892502266448,560.9892502266448,560.9892502266448,561.8764258872252,561.8764258872252,left,0.09842039807699621,554.6312717704568,S2,B-M,2023-01-25_13h57.39.520,knowing_that_K_ONLY,2022.2.5,60.002463891763306,
Does Anna know that the book is here?,Does Anna think that the book is here?,Is the book here?,early,3,per_3,per_K,1,1,1,no,O-B-X,O-B-O,O-B-X,M,stimuli/blue-M.png,mB-R,m0,stimuli/m0_w0_O-B-X.png,stimuli/m0_wW-R_O-B-X.png,stimuli/m0_none_O-B-X.png,stimuli/mW-R_none_O-B-X.png,stimuli/mB-R_none_O-B-X.png,stimuli/mB-R_none_O-B-O.png,stimuli/mB-R_none_O-B-X.png,stimuli/mW-L_none_O-B-X.png,stimuli/m0_none_O-B-X.png,stimuli/m0_wW-L_O-B-X.png,2,5,61,2,,,,,,,,,561.9928974310169,568.6446633529849,569.3819757717429,569.3819757717429,569.3819757717429,570.2932173995068,570.2932173995068,left,0.7617615184281021,563.0482965062838,S2,B-M,2023-01-25_13h57.39.520,knowing_that_K_ONLY,2022.2.5,60.002463891763306,
Does Anna know that the book is here?,Does Anna think that the book is here?,Is the book here?,early,9,per_9,per_K,1,1,1,switch,X-O-B,X-B-O,X-B-X,M,stimuli/blue-M.png,mB-R,m0,stimuli/m0_w0_X-O-B.png,stimuli/m0_wW-R_X-O-B.png,stimuli/m0_none_X-O-B.png,stimuli/mW-R_none_X-O-B.png,stimuli/mB-R_none_X-O-B.png,stimuli/mB-R_none_X-B-O.png,stimuli/mB-R_none_X-B-X.png,stimuli/mW-L_none_X-B-X.png,stimuli/m0_none_X-B-X.png,stimuli/m0_wW-L_X-B-X.png,2,6,62,8,,,,,,,,,571.0766881754389,577.748458062415,578.4903082335368,578.4903082335368,578.4903082335368,579.376830098452,579.376830098452,left,0.1727256519952789,572.1396857802756,S2,B-M,2023-01-25_13h57.39.520,knowing_that_K_ONLY,2022.2.5,60.002463891763306,
Does Anna know that the book is here?,Does Anna think that the book is here?,Is the book here?,early,7,per_7,per_K,1,1,1,switch,B-X-O,O-X-B,X-X-B,R,stimuli/blue-R.png,mB-R,m0,stimuli/m0_w0_B-X-O.png,stimuli/m0_wW-R_B-X-O.png,stimuli/m0_none_B-X-O.png,stimuli/mW-R_none_B-X-O.png,stimuli/mB-R_none_B-X-O.png,stimuli/mB-R_none_O-X-B.png,stimuli/mB-R_none_X-X-B.png,stimuli/mW-L_none_X-X-B.png,stimuli/m0_none_X-X-B.png,stimuli/m0_wW-L_X-X-B.png,2,7,63,6,,,,,,,,,579.5765935386298,586.2313887992641,586.9898318416672,586.9898318416672,586.9898318416672,587.8766472409479,587.8766472409479,left,0.4491573778213933,580.6389440847561,S2,B-M,2023-01-25_13h57.39.520,knowing_that_K_ONLY,2022.2.5,60.002463891763306,
Does Anna know that the book is here?,Does Anna think that the book is here?,Is the book here?,late,5,per_5,per_K,1,1,1,no,X-B-O,O-B-O,X-B-O,M,stimuli/blue-M.png,mB-L,m0,stimuli/m0_w0_X-B-O.png,stimuli/mW-R_w0_X-B-O.png,stimuli/mB-L_w0_X-B-O.png,stimuli/mB-L_w0_O-B-O.png,stimuli/mB-L_w0_X-B-O.png,stimuli/mW-L_w0_X-B-O.png,stimuli/m0_wW-R_X-B-O.png,stimuli/m0_none_X-B-O.png,stimuli/m0_none_X-B-O.png,stimuli/m0_wW-L_X-B-O.png,2,8,64,4,,,,,,,,,588.3432359739672,594.9947391586611,595.7334781864192,595.7334781864192,595.7334781864192,596.6432685033651,596.6432685033651,left,0.13915077573619783,589.4017208490986,S2,B-M,2023-01-25_13h57.39.520,knowing_that_K_ONLY,2022.2.5,60.002463891763306,
Does Anna know that the book is here?,Does Anna think that the book is here?,Is the book here?,early,26,no_8,no_K,0,0,0,hide,X-B-O,O-B-O,X-O-X,R,stimuli/blue-R.png,mB-L,m0,stimuli/m0_w0_X-B-O.png,stimuli/m0_wW-R_X-B-O.png,stimuli/m0_none_X-B-O.png,stimuli/mW-R_none_X-B-O.png,stimuli/mB-L_none_X-B-O.png,stimuli/mB-L_none_O-B-O.png,stimuli/mB-L_none_X-O-X.png,stimuli/mW-L_none_X-O-X.png,stimuli/m0_none_X-O-X.png,stimuli/m0_wW-L_X-O-X.png,2,9,65,25,,,,,,,,,596.8099353839643,603.4589760879753,604.2214458443923,604.2214458443923,604.2214458443923,605.1101764349733,605.1101764349733,right,0.08732736599631608,597.8629014923936,S2,B-M,2023-01-25_13h57.39.520,knowing_that_K_ONLY,2022.2.5,60.002463891763306,
Does Anna know that the book is here?,Does Anna think that the book is here?,Is the book here?,early,19,no_1,no_K,0,0,0,no,X-X-X,O-X-X,X-X-X,L,stimuli/blue-L.png,mB-L,m0,stimuli/m0_w0_X-X-X.png,stimuli/m0_wW-R_X-X-X.png,stimuli/m0_none_X-X-X.png,stimuli/mW-R_none_X-X-X.png,stimuli/mB-L_none_X-X-X.png,stimuli/mB-L_none_O-X-X.png,stimuli/mB-L_none_X-X-X.png,stimuli/mW-L_none_X-X-X.png,stimuli/m0_none_X-X-X.png,stimuli/m0_wW-L_X-X-X.png,2,10,66,18,,,,,,,,,605.226803888916,611.898309113807,612.6164830927737,612.6164830927737,612.6164830927737,613.526017088443,613.526017088443,right,0.3358075637370348,606.2869912632741,S2,B-M,2023-01-25_13h57.39.520,knowing_that_K_ONLY,2022.2.5,60.002463891763306,
Does Anna know that the book is here?,Does Anna think that the book is here?,Is the book here?,late,18,mem_9,mem_K,1,1,1,switch,X-O-B,X-B-O,X-X-O,M,stimuli/blue-M.png,mB-L,m0,stimuli/m0_w0_X-O-B.png,stimuli/mW-R_w0_X-O-B.png,stimuli/mB-L_w0_X-O-B.png,stimuli/mB-L_w0_X-B-O.png,stimuli/mB-L_w0_X-X-O.png,stimuli/mW-L_w0_X-X-O.png,stimuli/m0_wW-R_X-X-O.png,stimuli/m0_none_X-X-O.png,stimuli/m0_none_X-X-O.png,stimuli/m0_wW-L_X-X-O.png,2,11,67,17,,,,,,,,,613.8933498268016,620.5462456154637,621.281988347182,621.281988347182,621.281988347182,622.1933220453793,622.1933220453793,left,0.17229609738569707,614.9555021169363,S2,B-M,2023-01-25_13h57.39.520,knowing_that_K_ONLY,2022.2.5,60.002463891763306,
Does Anna know that the book is here?,Does Anna think that the book is here?,Is the book here?,early,21,no_3,no_K,0,0,0,no,X-X-O,X-O-O,X-X-O,M,stimuli/blue-M.png,mB-M,m0,stimuli/m0_w0_X-X-O.png,stimuli/m0_wW-R_X-X-O.png,stimuli/m0_none_X-X-O.png,stimuli/mW-R_none_X-X-O.png,stimuli/mB-M_none_X-X-O.png,stimuli/mB-M_none_X-O-O.png,stimuli/mB-M_none_X-X-O.png,stimuli/mW-L_none_X-X-O.png,stimuli/m0_none_X-X-O.png,stimuli/m0_wW-L_X-X-O.png,2,12,68,20,,,,,,,,,622.3935849751579,629.0436538514914,629.8046222517733,629.8046222517733,629.8046222517733,630.693423098186,630.693423098186,left,1.1046969004673883,623.4566554022022,S2,B-M,2023-01-25_13h57.39.520,knowing_that_K_ONLY,2022.2.5,60.002463891763306,
Does Anna know that the book is here?,Does Anna think that the book is here?,Is the book here?,early,1,per_1,per_K,1,1,1,no,B-X-X,B-O-X,B-X-X,L,stimuli/blue-L.png,mB-M,m0,stimuli/m0_w0_B-X-X.png,stimuli/m0_wW-R_B-X-X.png,stimuli/m0_none_B-X-X.png,stimuli/mW-R_none_B-X-X.png,stimuli/mB-M_none_B-X-X.png,stimuli/mB-M_none_B-O-X.png,stimuli/mB-M_none_B-X-X.png,stimuli/mW-L_none_B-X-X.png,stimuli/m0_none_B-X-X.png,stimuli/m0_wW-L_B-X-X.png,2,13,69,0,,,,,,,,,631.8266992430435,638.4788090653019,639.2162857350195,639.2162857350195,639.2162857350195,640.126532874885,640.126532874885,left,0.6242754813283682,632.8837286368944,S2,B-M,2023-01-25_13h57.39.520,knowing_that_K_ONLY,2022.2.5,60.002463891763306,
Does Anna know that the book is here?,Does Anna think that the book is here?,Is the book here?,early,2,per_2,per_K,1,1,1,no,X-X-B,O-X-B,X-X-B,R,stimuli/blue-R.png,mB-L,m0,stimuli/m0_w0_X-X-B.png,stimuli/m0_wW-R_X-X-B.png,stimuli/m0_none_X-X-B.png,stimuli/mW-R_none_X-X-B.png,stimuli/mB-L_none_X-X-B.png,stimuli/mB-L_none_O-X-B.png,stimuli/mB-L_none_X-X-B.png,stimuli/mW-L_none_X-X-B.png,stimuli/m0_none_X-X-B.png,stimuli/m0_wW-L_X-X-B.png,2,14,70,1,,,,,,,,,640.7767044079956,647.4281373368576,648.1858627439942,648.1858627439942,648.1858627439942,649.0764770873357,649.0764770873357,left,0.12140173185616732,641.8292213928653,S2,B-M,2023-01-25_13h57.39.520,knowing_that_K_ONLY,2022.2.5,60.002463891763306,
Does Anna know that the book is here?,Does Anna think that the book is here?,Is the book here?,late,10,mem_1,mem_K,1,1,1,no,O-X-B,X-X-B,X-X-X,R,stimuli/blue-R.png,mB-M,m0,stimuli/m0_w0_O-X-B.png,stimuli/mW-R_w0_O-X-B.png,stimuli/mB-M_w0_O-X-B.png,stimuli/mB-M_w0_X-X-B.png,stimuli/mB-M_w0_X-X-X.png,stimuli/mW-L_w0_X-X-X.png,stimuli/m0_wW-R_X-X-X.png,stimuli/m0_none_X-X-X.png,stimuli/m0_none_X-X-X.png,stimuli/m0_wW-L_X-X-X.png,2,15,71,9,,,,,,,,,649.2265530212317,655.8993924640818,656.6399080965202,656.6399080965202,656.6399080965202,657.5269220725168,657.5269220725168,left,0.22342464874964207,650.2820165777812,S2,B-M,2023-01-25_13h57.39.520,knowing_that_K_ONLY,2022.2.5,60.002463891763306,
Does Anna know that the book is here?,Does Anna think that the book is here?,Is the book here?,late,16,mem_7,mem_K,1,1,1,switch,B-X-O,O-X-B,O-X-X,R,stimuli/blue-R.png,mB-M,m0,stimuli/m0_w0_B-X-O.png,stimuli/mW-R_w0_B-X-O.png,stimuli/mB-M_w0_B-X-O.png,stimuli/mB-M_w0_O-X-B.png,stimuli/mB-M_w0_O-X-X.png,stimuli/mW-L_w0_O-X-X.png,stimuli/m0_wW-R_O-X-X.png,stimuli/m0_none_O-X-X.png,stimuli/m0_none_O-X-X.png,stimuli/m0_wW-L_O-X-X.png,2,16,72,15,,,,,,,,,657.7769819021923,664.4265265871072,665.1875941155013,665.1875941155013,665.1875941155013,666.076848255936,666.076848255936,left,0.4734799871221185,658.8371987903956,S2,B-M,2023-01-25_13h57.39.520,knowing_that_K_ONLY,2022.2.5,60.002463891763306,
Does Anna know that the book is here?,Does Anna think that the book is here?,Is the book here?,late,11,mem_2,mem_K,1,1,1,no,O-B-O,O-B-X,O-X-X,M,stimuli/blue-M.png,mB-L,m0,stimuli/m0_w0_O-B-O.png,stimuli/mW-R_w0_O-B-O.png,stimuli/mB-L_w0_O-B-O.png,stimuli/mB-L_w0_O-B-X.png,stimuli/mB-L_w0_O-X-X.png,stimuli/mW-L_w0_O-X-X.png,stimuli/m0_wW-R_O-X-X.png,stimuli/m0_none_O-X-X.png,stimuli/m0_none_O-X-X.png,stimuli/m0_wW-L_O-X-X.png,2,17,73,10,,,,,,,,,666.5767520151567,673.250594928395,673.9868217512267,673.9868217512267,673.9868217512267,674.8767633715179,674.8767633715179,left,1.530035555595532,667.632271070499,S2,B-M,2023-01-25_13h57.39.520,knowing_that_K_ONLY,2022.2.5,60.002463891763306,
Does Anna know that the book is here?,Does Anna think that the book is here?,Is the book here?,early,27,no_9,no_K,0,0,0,hide,X-X-B,O-O-B,X-X-O,L,stimuli/blue-L.png,mB-M,m0,stimuli/m0_w0_X-X-B.png,stimuli/m0_wW-R_X-X-B.png,stimuli/m0_none_X-X-B.png,stimuli/mW-R_none_X-X-B.png,stimuli/mB-M_none_X-X-B.png,stimuli/mB-M_none_O-O-B.png,stimuli/mB-M_none_X-X-O.png,stimuli/mW-L_none_X-X-O.png,stimuli/m0_none_X-X-O.png,stimuli/m0_wW-L_X-X-O.png,2,18,74,26,,,,,,,,,676.4267341464292,683.0782206492731,683.8408504860708,683.8408504860708,683.8408504860708,684.7267631469294,684.7267631469294,right,0.048871799488551915,677.487902214285,S2,B-M,2023-01-25_13h57.39.520,knowing_that_K_ONLY,2022.2.5,60.002463891763306,
Does Anna know that the book is here?,Does Anna think that the book is here?,Is the book here?,late,4,per_4,per_K,1,1,1,no,O-X-B,O-O-B,O-X-B,R,stimuli/blue-R.png,mB-M,m0,stimuli/m0_w0_O-X-B.png,stimuli/mW-R_w0_O-X-B.png,stimuli/mB-M_w0_O-X-B.png,stimuli/mB-M_w0_O-O-B.png,stimuli/mB-M_w0_O-X-B.png,stimuli/mW-L_w0_O-X-B.png,stimuli/m0_wW-R_O-X-B.png,stimuli/m0_none_O-X-B.png,stimuli/m0_none_O-X-B.png,stimuli/m0_wW-L_O-X-B.png,2,19,75,3,,,,,,,,,684.7936822425108,691.465487417765,692.2076054590289,692.2076054590289,692.2076054590289,693.0932489664992,693.0932489664992,left,0.10537796432618052,685.8569358477835,S2,B-M,2023-01-25_13h57.39.520,knowing_that_K_ONLY,2022.2.5,60.002463891763306,
Does Anna know that the book is here?,Does Anna think that the book is here?,Is the book here?,late,14,mem_5,mem_K,1,1,1,no,O-B-X,O-B-X,O-X-X,M,stimuli/blue-M.png,mB-L,m0,stimuli/m0_w0_O-B-X.png,stimuli/mW-R_w0_O-B-X.png,stimuli/mB-L_w0_O-B-X.png,stimuli/mB-L_w0_O-B-X.png,stimuli/mB-L_w0_O-X-X.png,stimuli/mW-L_w0_O-X-X.png,stimuli/m0_wW-R_O-X-X.png,stimuli/m0_none_O-X-X.png,stimuli/m0_none_O-X-X.png,stimuli/m0_wW-L_O-X-X.png,2,20,76,13,,,,,,,,,693.2266524700681,699.9001890168292,700.6159797535511,700.6159797535511,700.6159797535511,701.5267575008329,701.5267575008329,left,0.11925460025668144,694.2883344636066,S2,B-M,2023-01-25_13h57.39.520,knowing_that_K_ONLY,2022.2.5,60.002463891763306,
Does Anna know that the book is here?,Does Anna think that the book is here?,Is the book here?,early,24,no_6,no_K,0,0,0,no,X-X-X,X-X-O,X-X-X,R,stimuli/blue-R.png,mB-R,m0,stimuli/m0_w0_X-X-X.png,stimuli/m0_wW-R_X-X-X.png,stimuli/m0_none_X-X-X.png,stimuli/mW-R_none_X-X-X.png,stimuli/mB-R_none_X-X-X.png,stimuli/mB-R_none_X-X-O.png,stimuli/mB-R_none_X-X-X.png,stimuli/mW-L_none_X-X-X.png,stimuli/m0_none_X-X-X.png,stimuli/m0_wW-L_X-X-X.png,2,21,77,23,,,,,,,,,701.6768995200982,708.3294729021145,709.0655367572326,709.0655367572326,709.0655367572326,709.9766747658141,709.9766747658141,right,0.19870264024939388,702.7313050697558,S2,B-M,2023-01-25_13h57.39.520,knowing_that_K_ONLY,2022.2.5,60.002463891763306,
Does Anna know that the book is here?,Does Anna think that the book is here?,Is the book here?,early,22,no_4,no_K,0,0,0,no,O-X-X,O-O-X,O-X-X,M,stimuli/blue-M.png,mB-M,m0,stimuli/m0_w0_O-X-X.png,stimuli/m0_wW-R_O-X-X.png,stimuli/m0_none_O-X-X.png,stimuli/mW-R_none_O-X-X.png,stimuli/mB-M_none_O-X-X.png,stimuli/mB-M_none_O-O-X.png,stimuli/mB-M_none_O-X-X.png,stimuli/mW-L_none_O-X-X.png,stimuli/m0_none_O-X-X.png,stimuli/m0_wW-L_O-X-X.png,2,22,78,21,,,,,,,,,710.1932890026364,716.8648118717829,717.602338265744,717.602338265744,717.602338265744,718.493621803238,718.493621803238,right,0.16828799014911056,711.2424731696956,S2,B-M,2023-01-25_13h57.39.520,knowing_that_K_ONLY,2022.2.5,60.002463891763306,
Does Anna know that the book is here?,Does Anna think that the book is here?,Is the book here?,early,25,no_7,no_K,0,0,0,hide,B-X-X,B-O-O,O-X-X,M,stimuli/blue-M.png,mB-L,m0,stimuli/m0_w0_B-X-X.png,stimuli/m0_wW-R_B-X-X.png,stimuli/m0_none_B-X-X.png,stimuli/mW-R_none_B-X-X.png,stimuli/mB-L_none_B-X-X.png,stimuli/mB-L_none_B-O-O.png,stimuli/mB-L_none_O-X-X.png,stimuli/mW-L_none_O-X-X.png,stimuli/m0_none_O-X-X.png,stimuli/m0_wW-L_O-X-X.png,2,23,79,24,,,,,,,,,718.693472822546,725.3436603958253,726.105552707566,726.105552707566,726.105552707566,726.9935008607572,726.9935008607572,right,0.06888025579974055,719.7500816442771,S2,B-M,2023-01-25_13h57.39.520,knowing_that_K_ONLY,2022.2.5,60.002463891763306,
Does Anna know that the book is here?,Does Anna think that the book is here?,Is the book here?,early,23,no_5,no_K,0,0,0,no,X-O-X,X-O-O,X-O-X,R,stimuli/blue-R.png,mB-R,m0,stimuli/m0_w0_X-O-X.png,stimuli/m0_wW-R_X-O-X.png,stimuli/m0_none_X-O-X.png,stimuli/mW-R_none_X-O-X.png,stimuli/mB-R_none_X-O-X.png,stimuli/mB-R_none_X-O-O.png,stimuli/mB-R_none_X-O-X.png,stimuli/mW-L_none_X-O-X.png,stimuli/m0_none_X-O-X.png,stimuli/m0_wW-L_X-O-X.png,2,24,80,22,,,,,,,,,727.0934751323657,733.7683333856985,734.5033600861207,734.5033600861207,734.5033600861207,735.3935150401667,735.3935150401667,right,0.1822137088747695,728.1551430105465,S2,B-M,2023-01-25_13h57.39.520,knowing_that_K_ONLY,2022.2.5,60.002463891763306,
Does Anna know that the book is here?,Does Anna think that the book is here?,Is the book here?,late,15,mem_6,mem_K,1,1,1,no,X-B-O,X-B-X,X-X-X,M,stimuli/blue-M.png,mB-R,m0,stimuli/m0_w0_X-B-O.png,stimuli/mW-R_w0_X-B-O.png,stimuli/mB-R_w0_X-B-O.png,stimuli/mB-R_w0_X-B-X.png,stimuli/mB-R_w0_X-X-X.png,stimuli/mW-L_w0_X-X-X.png,stimuli/m0_wW-R_X-X-X.png,stimuli/m0_none_X-X-X.png,stimuli/m0_none_X-X-X.png,stimuli/m0_wW-L_X-X-X.png,2,25,81,14,,,,,,,,,735.5937208670657,742.2657849300886,743.0058158298489,743.0058158298489,743.0058158298489,743.8935188897885,743.8935188897885,left,0.21644655126146972,736.6557509314734,S2,B-M,2023-01-25_13h57.39.520,knowing_that_K_ONLY,2022.2.5,60.002463891763306,
Does Anna know that the book is here?,Does Anna think that the book is here?,Is the book here?,early,8,per_8,per_K,1,1,1,switch,O-X-B,B-X-O,B-X-X,L,stimuli/blue-L.png,mB-L,m0,stimuli/m0_w0_O-X-B.png,stimuli/m0_wW-R_O-X-B.png,stimuli/m0_none_O-X-B.png,stimuli/mW-R_none_O-X-B.png,stimuli/mB-L_none_O-X-B.png,stimuli/mB-L_none_B-X-O.png,stimuli/mB-L_none_B-X-X.png,stimuli/mW-L_none_B-X-X.png,stimuli/m0_none_B-X-X.png,stimuli/m0_wW-L_B-X-X.png,2,26,82,7,,,,,,,,,744.1271253972081,750.8004720289027,751.5380661123199,751.5380661123199,751.5380661123199,752.4268595802132,752.4268595802132,left,0.1805667084408924,745.1825697055319,S2,B-M,2023-01-25_13h57.39.520,knowing_that_K_ONLY,2022.2.5,60.002463891763306,
Does Anna know that the book is here?,Does Anna think that the book is here?,Is the book here?,early,20,no_2,no_K,0,0,0,no,X-O-X,O-O-X,X-O-X,L,stimuli/blue-L.png,mB-L,m0,stimuli/m0_w0_X-O-X.png,stimuli/m0_wW-R_X-O-X.png,stimuli/m0_none_X-O-X.png,stimuli/mW-R_none_X-O-X.png,stimuli/mB-L_none_X-O-X.png,stimuli/mB-L_none_O-O-X.png,stimuli/mB-L_none_X-O-X.png,stimuli/mW-L_none_X-O-X.png,stimuli/m0_none_X-O-X.png,stimuli/m0_wW-L_X-O-X.png,2,27,83,19,,,,,,,,,752.6267032210017,759.2784838998923,760.0149878960801,760.0149878960801,760.0149878960801,760.9265394192189,760.9265394192189,right,0.25565407902467996,753.6753230963368,S2,B-M,2023-01-25_13h57.39.520,knowing_that_K_ONLY,2022.2.5,60.002463891763306,
