K_text,B_text,T_text,Anna_exit,trial_num,trial_code,cond,K_hit,B_hit,T_hit,book_move,start_shelf,mid_shelf,end_shelf,rectangle,rectangle_path,Todd_mid,Todd_final,frame_1,frame_2,frame_3,frame_4,frame_5,frame_6,frame_7,frame_8,frame_9,frame_10,trials.thisRepN,trials.thisTrialN,trials.thisN,trials.thisIndex,frames.thisRepN,frames.thisTrialN,frames.thisN,frames.thisIndex,sessionInst.started,startSession.started,startSession.keys,startSession.rt,crossText.started,movingImage.started,staticImage.started,promptText3.started,rectImage.started,respText.started,keyResp.started,keyResp.keys,keyResp.rt,crossText.stopped,subject,session,date,expName,psychopyVersion,frameRate,
,,,,,,,,,,,,,,,,,,,,,,,,,,,,,,,,,,,,24.249934075050987,24.249934075050987,left,19.16146099497564,,,,,,,,,,,S2,K-M,2023-01-25_14h10.52.730,knowing_that_K_ONLY,2022.2.5,59.95606937186142,
Does Anna know that the book is here?,Does Anna think that the book is here?,Is the book here?,early,22,no_4,no_K,0,0,0,no,O-X-X,O-O-X,O-X-X,M,stimuli/blue-M.png,mB-M,m0,stimuli/m0_w0_O-X-X.png,stimuli/m0_wW-R_O-X-X.png,stimuli/m0_none_O-X-X.png,stimuli/mW-R_none_O-X-X.png,stimuli/mB-M_none_O-X-X.png,stimuli/mB-M_none_O-O-X.png,stimuli/mB-M_none_O-X-X.png,stimuli/mW-L_none_O-X-X.png,stimuli/m0_none_O-X-X.png,stimuli/m0_wW-L_O-X-X.png,0,0,0,21,,,,,,,,,43.46542454045266,50.08198687143158,50.84460387611762,50.84460387611762,50.84460387611762,51.72880858415738,51.72880858415738,right,0.4898746070684865,,S2,K-M,2023-01-25_14h10.52.730,knowing_that_K_ONLY,2022.2.5,59.95606937186142,
Does Anna know that the book is here?,Does Anna think that the book is here?,Is the book here?,early,1,per_1,per_K,1,1,1,no,B-X-X,B-O-X,B-X-X,L,stimuli/blue-L.png,mB-M,m0,stimuli/m0_w0_B-X-X.png,stimuli/m0_wW-R_B-X-X.png,stimuli/m0_none_B-X-X.png,stimuli/mW-R_none_B-X-X.png,stimuli/mB-M_none_B-X-X.png,stimuli/mB-M_none_B-O-X.png,stimuli/mB-M_none_B-X-X.png,stimuli/mW-L_none_B-X-X.png,stimuli/m0_none_B-X-X.png,stimuli/m0_wW-L_B-X-X.png,0,1,1,0,,,,,,,,,52.24557757610455,58.92092537425924,59.66205887240358,59.66205887240358,59.66205887240358,60.545569363515824,60.545569363515824,left,0.3858190850587562,53.31110791733954,S2,K-M,2023-01-25_14h10.52.730,knowing_that_K_ONLY,2022.2.5,59.95606937186142,
Does Anna know that the book is here?,Does Anna think that the book is here?,Is the book here?,late,12,mem_3,mem_K,1,1,1,no,X-O-B,X-O-B,X-O-X,R,stimuli/blue-R.png,mB-M,m0,stimuli/m0_w0_X-O-B.png,stimuli/mW-R_w0_X-O-B.png,stimuli/mB-M_w0_X-O-B.png,stimuli/mB-M_w0_X-O-B.png,stimuli/mB-M_w0_X-O-X.png,stimuli/mW-L_w0_X-O-X.png,stimuli/m0_wW-R_X-O-X.png,stimuli/m0_none_X-O-X.png,stimuli/m0_none_X-O-X.png,stimuli/m0_wW-L_X-O-X.png,0,2,2,11,,,,,,,,,60.96250748261809,67.63605333270971,68.37466243549716,68.37466243549716,68.37466243549716,69.26200715894811,69.26200715894811,left,0.3492039628326893,62.01143019553274,S2,K-M,2023-01-25_14h10.52.730,knowing_that_K_ONLY,2022.2.5,59.95606937186142,
Does Anna know that the book is here?,Does Anna think that the book is here?,Is the book here?,early,7,per_7,per_K,1,1,1,switch,B-X-O,O-X-B,X-X-B,R,stimuli/blue-R.png,mB-R,m0,stimuli/m0_w0_B-X-O.png,stimuli/m0_wW-R_B-X-O.png,stimuli/m0_none_B-X-O.png,stimuli/mW-R_none_B-X-O.png,stimuli/mB-R_none_B-X-O.png,stimuli/mB-R_none_O-X-B.png,stimuli/mB-R_none_X-X-B.png,stimuli/mW-L_none_X-X-B.png,stimuli/m0_none_X-X-B.png,stimuli/m0_wW-L_X-X-B.png,0,3,3,6,,,,,,,,,69.62899631774053,76.30215880880132,77.03993895766325,77.03993895766325,77.03993895766325,77.92892298230436,77.92892298230436,left,0.07404165284242481,70.67909124330617,S2,K-M,2023-01-25_14h10.52.730,knowing_that_K_ONLY,2022.2.5,59.95606937186142,
Does Anna know that the book is here?,Does Anna think that the book is here?,Is the book here?,early,24,no_6,no_K,0,0,0,no,X-X-X,X-X-O,X-X-X,R,stimuli/blue-R.png,mB-R,m0,stimuli/m0_w0_X-X-X.png,stimuli/m0_wW-R_X-X-X.png,stimuli/m0_none_X-X-X.png,stimuli/mW-R_none_X-X-X.png,stimuli/mB-R_none_X-X-X.png,stimuli/mB-R_none_X-X-O.png,stimuli/mB-R_none_X-X-X.png,stimuli/mW-L_none_X-X-X.png,stimuli/m0_none_X-X-X.png,stimuli/m0_wW-L_X-X-X.png,0,4,4,23,,,,,,,,,78.02906631689984,84.70259837247431,85.43927784764674,85.43927784764674,85.43927784764674,86.32938275660854,86.32938275660854,right,0.4112022677436471,79.08359312987886,S2,K-M,2023-01-25_14h10.52.730,knowing_that_K_ONLY,2022.2.5,59.95606937186142,
Does Anna know that the book is here?,Does Anna think that the book is here?,Is the book here?,late,11,mem_2,mem_K,1,1,1,no,O-B-O,O-B-X,O-X-X,M,stimuli/blue-M.png,mB-L,m0,stimuli/m0_w0_O-B-O.png,stimuli/mW-R_w0_O-B-O.png,stimuli/mB-L_w0_O-B-O.png,stimuli/mB-L_w0_O-B-X.png,stimuli/mB-L_w0_O-X-X.png,stimuli/mW-L_w0_O-X-X.png,stimuli/m0_wW-R_O-X-X.png,stimuli/m0_none_O-X-X.png,stimuli/m0_none_O-X-X.png,stimuli/m0_wW-L_O-X-X.png,0,5,5,10,,,,,,,,,86.76242965599522,93.43876520521007,94.1746933608083,94.1746933608083,94.1746933608083,95.0621731422143,95.0621731422143,left,0.3654628787189722,87.82803346088622,S2,K-M,2023-01-25_14h10.52.730,knowing_that_K_ONLY,2022.2.5,59.95606937186142,
Does Anna know that the book is here?,Does Anna think that the book is here?,Is the book here?,late,17,mem_8,mem_K,1,1,1,switch,O-X-B,B-X-O,X-X-O,L,stimuli/blue-L.png,mB-M,m0,stimuli/m0_w0_O-X-B.png,stimuli/mW-R_w0_O-X-B.png,stimuli/mB-M_w0_O-X-B.png,stimuli/mB-M_w0_B-X-O.png,stimuli/mB-M_w0_X-X-O.png,stimuli/mW-L_w0_X-X-O.png,stimuli/m0_wW-R_X-X-O.png,stimuli/m0_none_X-X-O.png,stimuli/m0_none_X-X-O.png,stimuli/m0_wW-L_X-X-O.png,0,6,6,16,,,,,,,,,95.44541736727115,102.11855836457107,102.86831086536404,102.86831086536404,102.86831086536404,103.74535205191933,103.74535205191933,left,0.13064470002427697,96.48521100147627,S2,K-M,2023-01-25_14h10.52.730,knowing_that_K_ONLY,2022.2.5,59.95606937186142,
Does Anna know that the book is here?,Does Anna think that the book is here?,Is the book here?,early,21,no_3,no_K,0,0,0,no,X-X-O,X-O-O,X-X-O,M,stimuli/blue-M.png,mB-M,m0,stimuli/m0_w0_X-X-O.png,stimuli/m0_wW-R_X-X-O.png,stimuli/m0_none_X-X-O.png,stimuli/mW-R_none_X-X-O.png,stimuli/mB-M_none_X-X-O.png,stimuli/mB-M_none_X-O-O.png,stimuli/mB-M_none_X-X-O.png,stimuli/mW-L_none_X-X-O.png,stimuli/m0_none_X-X-O.png,stimuli/m0_wW-L_X-X-O.png,0,7,7,20,,,,,,,,,103.89545782050118,110.56906013179105,111.28623288590461,111.28623288590461,111.28623288590461,112.19588365382515,112.19588365382515,right,0.3118413706542924,104.9429433378391,S2,K-M,2023-01-25_14h10.52.730,knowing_that_K_ONLY,2022.2.5,59.95606937186142,
Does Anna know that the book is here?,Does Anna think that the book is here?,Is the book here?,early,20,no_2,no_K,0,0,0,no,X-O-X,O-O-X,X-O-X,L,stimuli/blue-L.png,mB-L,m0,stimuli/m0_w0_X-O-X.png,stimuli/m0_wW-R_X-O-X.png,stimuli/m0_none_X-O-X.png,stimuli/mW-R_none_X-O-X.png,stimuli/mB-L_none_X-O-X.png,stimuli/mB-L_none_O-O-X.png,stimuli/mB-L_none_X-O-X.png,stimuli/mW-L_none_X-O-X.png,stimuli/m0_none_X-O-X.png,stimuli/m0_wW-L_X-O-X.png,0,8,8,19,,,,,,,,,112.52893831662368,119.20098441466689,119.93974686111324,119.93974686111324,119.93974686111324,120.82890668557957,120.82890668557957,right,0.022473601857200265,113.58010760997422,S2,K-M,2023-01-25_14h10.52.730,knowing_that_K_ONLY,2022.2.5,59.95606937186142,
Does Anna know that the book is here?,Does Anna think that the book is here?,Is the book here?,late,15,mem_6,mem_K,1,1,1,no,X-B-O,X-B-X,X-X-X,M,stimuli/blue-M.png,mB-R,m0,stimuli/m0_w0_X-B-O.png,stimuli/mW-R_w0_X-B-O.png,stimuli/mB-R_w0_X-B-O.png,stimuli/mB-R_w0_X-B-X.png,stimuli/mB-R_w0_X-X-X.png,stimuli/mW-L_w0_X-X-X.png,stimuli/m0_wW-R_X-X-X.png,stimuli/m0_none_X-X-X.png,stimuli/m0_none_X-X-X.png,stimuli/m0_wW-L_X-X-X.png,0,9,9,14,,,,,,,,,120.8786509737838,127.53004283993505,128.27110159106087,128.27110159106087,128.27110159106087,129.17895682703238,129.17895682703238,left,0.27202046825550497,121.9290699098492,S2,K-M,2023-01-25_14h10.52.730,knowing_that_K_ONLY,2022.2.5,59.95606937186142,
Does Anna know that the book is here?,Does Anna think that the book is here?,Is the book here?,early,23,no_5,no_K,0,0,0,no,X-O-X,X-O-O,X-O-X,R,stimuli/blue-R.png,mB-R,m0,stimuli/m0_w0_X-O-X.png,stimuli/m0_wW-R_X-O-X.png,stimuli/m0_none_X-O-X.png,stimuli/mW-R_none_X-O-X.png,stimuli/mB-R_none_X-O-X.png,stimuli/mB-R_none_X-O-O.png,stimuli/mB-R_none_X-O-X.png,stimuli/mW-L_none_X-O-X.png,stimuli/m0_none_X-O-X.png,stimuli/m0_wW-L_X-O-X.png,0,10,10,22,,,,,,,,,129.47895053925458,136.15084425604437,136.8903727789875,136.8903727789875,136.8903727789875,137.77894232666586,137.77894232666586,right,0.3196394395781681,130.53473553992808,S2,K-M,2023-01-25_14h10.52.730,knowing_that_K_ONLY,2022.2.5,59.95606937186142,
Does Anna know that the book is here?,Does Anna think that the book is here?,Is the book here?,late,18,mem_9,mem_K,1,1,1,switch,X-O-B,X-B-O,X-X-O,M,stimuli/blue-M.png,mB-L,m0,stimuli/m0_w0_X-O-B.png,stimuli/mW-R_w0_X-O-B.png,stimuli/mB-L_w0_X-O-B.png,stimuli/mB-L_w0_X-B-O.png,stimuli/mB-L_w0_X-X-O.png,stimuli/mW-L_w0_X-X-O.png,stimuli/m0_wW-R_X-X-O.png,stimuli/m0_none_X-X-O.png,stimuli/m0_none_X-X-O.png,stimuli/m0_wW-L_X-X-O.png,0,11,11,17,,,,,,,,,138.12902711483184,144.8034144300036,145.54050453251693,145.54050453251693,145.54050453251693,146.4289146414958,146.4289146414958,left,0.41491780313663185,139.1931407918455,S2,K-M,2023-01-25_14h10.52.730,knowing_that_K_ONLY,2022.2.5,59.95606937186142,
Does Anna know that the book is here?,Does Anna think that the book is here?,Is the book here?,early,26,no_8,no_K,0,0,0,hide,X-B-O,O-B-O,X-O-X,R,stimuli/blue-R.png,mB-L,m0,stimuli/m0_w0_X-B-O.png,stimuli/m0_wW-R_X-B-O.png,stimuli/m0_none_X-B-O.png,stimuli/mW-R_none_X-B-O.png,stimuli/mB-L_none_X-B-O.png,stimuli/mB-L_none_O-B-O.png,stimuli/mB-L_none_X-O-X.png,stimuli/mW-L_none_X-O-X.png,stimuli/m0_none_X-O-X.png,stimuli/m0_wW-L_X-O-X.png,0,12,12,25,,,,,,,,,146.86224513035268,153.53406730818097,154.27371035760734,154.27371035760734,154.27371035760734,155.16232802567538,155.16232802567538,right,0.025519301532767713,147.92285660572816,S2,K-M,2023-01-25_14h10.52.730,knowing_that_K_ONLY,2022.2.5,59.95606937186142,
Does Anna know that the book is here?,Does Anna think that the book is here?,Is the book here?,early,25,no_7,no_K,0,0,0,hide,B-X-X,B-O-O,O-X-X,M,stimuli/blue-M.png,mB-L,m0,stimuli/m0_w0_B-X-X.png,stimuli/m0_wW-R_B-X-X.png,stimuli/m0_none_B-X-X.png,stimuli/mW-R_none_B-X-X.png,stimuli/mB-L_none_B-X-X.png,stimuli/mB-L_none_B-O-O.png,stimuli/mB-L_none_O-X-X.png,stimuli/mW-L_none_O-X-X.png,stimuli/m0_none_O-X-X.png,stimuli/m0_wW-L_O-X-X.png,0,13,13,24,,,,,,,,,155.21235718671232,161.8845242272364,162.62487881677225,162.62487881677225,162.62487881677225,163.51260080409702,163.51260080409702,right,0.05281992116943002,156.2654554657638,S2,K-M,2023-01-25_14h10.52.730,knowing_that_K_ONLY,2022.2.5,59.95606937186142,
Does Anna know that the book is here?,Does Anna think that the book is here?,Is the book here?,late,6,per_6,per_K,1,1,1,no,X-B-X,O-B-X,X-B-X,M,stimuli/blue-M.png,mB-L,m0,stimuli/m0_w0_X-B-X.png,stimuli/mW-R_w0_X-B-X.png,stimuli/mB-L_w0_X-B-X.png,stimuli/mB-L_w0_O-B-X.png,stimuli/mB-L_w0_X-B-X.png,stimuli/mW-L_w0_X-B-X.png,stimuli/m0_wW-R_X-B-X.png,stimuli/m0_none_X-B-X.png,stimuli/m0_none_X-B-X.png,stimuli/m0_wW-L_X-B-X.png,0,14,14,5,,,,,,,,,163.5960053021554,170.27019083255436,171.00953874364495,171.00953874364495,171.00953874364495,171.89561052247882,171.89561052247882,left,0.003685799310915172,164.64785886730533,S2,K-M,2023-01-25_14h10.52.730,knowing_that_K_ONLY,2022.2.5,59.95606937186142,
Does Anna know that the book is here?,Does Anna think that the book is here?,Is the book here?,late,5,per_5,per_K,1,1,1,no,X-B-O,O-B-O,X-B-O,M,stimuli/blue-M.png,mB-L,m0,stimuli/m0_w0_X-B-O.png,stimuli/mW-R_w0_X-B-O.png,stimuli/mB-L_w0_X-B-O.png,stimuli/mB-L_w0_O-B-O.png,stimuli/mB-L_w0_X-B-O.png,stimuli/mW-L_w0_X-B-O.png,stimuli/m0_wW-R_X-B-O.png,stimuli/m0_none_X-B-O.png,stimuli/m0_none_X-B-O.png,stimuli/m0_wW-L_X-B-O.png,0,15,15,4,,,,,,,,,171.9292232535081,178.60257630120032,179.34051813464612,179.34051813464612,179.34051813464612,180.22905816847924,180.22905816847924,left,0.022575296345166862,172.9861352336593,S2,K-M,2023-01-25_14h10.52.730,knowing_that_K_ONLY,2022.2.5,59.95606937186142,
Does Anna know that the book is here?,Does Anna think that the book is here?,Is the book here?,late,4,per_4,per_K,1,1,1,no,O-X-B,O-O-B,O-X-B,R,stimuli/blue-R.png,mB-M,m0,stimuli/m0_w0_O-X-B.png,stimuli/mW-R_w0_O-X-B.png,stimuli/mB-M_w0_O-X-B.png,stimuli/mB-M_w0_O-O-B.png,stimuli/mB-M_w0_O-X-B.png,stimuli/mW-L_w0_O-X-B.png,stimuli/m0_wW-R_O-X-B.png,stimuli/m0_none_O-X-B.png,stimuli/m0_none_O-X-B.png,stimuli/m0_wW-L_O-X-B.png,0,16,16,3,,,,,,,,,180.27908219664823,186.9526697510155,187.68957924167626,187.68957924167626,187.68957924167626,188.5791163300164,188.5791163300164,left,0.12911671737674624,181.34088128316216,S2,K-M,2023-01-25_14h10.52.730,knowing_that_K_ONLY,2022.2.5,59.95606937186142,
Does Anna know that the book is here?,Does Anna think that the book is here?,Is the book here?,early,27,no_9,no_K,0,0,0,hide,X-X-B,O-O-B,X-X-O,L,stimuli/blue-L.png,mB-M,m0,stimuli/m0_w0_X-X-B.png,stimuli/m0_wW-R_X-X-B.png,stimuli/m0_none_X-X-B.png,stimuli/mW-R_none_X-X-B.png,stimuli/mB-M_none_X-X-B.png,stimuli/mB-M_none_O-O-B.png,stimuli/mB-M_none_X-X-O.png,stimuli/mW-L_none_X-X-O.png,stimuli/m0_none_X-X-O.png,stimuli/m0_wW-L_X-X-O.png,0,17,17,26,,,,,,,,,188.7291759030195,195.3794738324359,196.14165518723894,196.14165518723894,196.14165518723894,197.02917410654482,197.02917410654482,right,0.43134866922628134,189.7644815092208,S2,K-M,2023-01-25_14h10.52.730,knowing_that_K_ONLY,2022.2.5,59.95606937186142,
Does Anna know that the book is here?,Does Anna think that the book is here?,Is the book here?,late,10,mem_1,mem_K,1,1,1,no,O-X-B,X-X-B,X-X-X,R,stimuli/blue-R.png,mB-M,m0,stimuli/m0_w0_O-X-B.png,stimuli/mW-R_w0_O-X-B.png,stimuli/mB-M_w0_O-X-B.png,stimuli/mB-M_w0_X-X-B.png,stimuli/mB-M_w0_X-X-X.png,stimuli/mW-L_w0_X-X-X.png,stimuli/m0_wW-R_X-X-X.png,stimuli/m0_none_X-X-X.png,stimuli/m0_none_X-X-X.png,stimuli/m0_wW-L_X-X-X.png,0,18,18,9,,,,,,,,,197.47903523116838,204.1529702147236,204.88956981012598,204.88956981012598,204.88956981012598,205.77923329465557,205.77923329465557,left,0.37588062149006873,198.53208635235205,S2,K-M,2023-01-25_14h10.52.730,knowing_that_K_ONLY,2022.2.5,59.95606937186142,
Does Anna know that the book is here?,Does Anna think that the book is here?,Is the book here?,late,14,mem_5,mem_K,1,1,1,no,O-B-X,O-B-X,O-X-X,M,stimuli/blue-M.png,mB-L,m0,stimuli/m0_w0_O-B-X.png,stimuli/mW-R_w0_O-B-X.png,stimuli/mB-L_w0_O-B-X.png,stimuli/mB-L_w0_O-B-X.png,stimuli/mB-L_w0_O-X-X.png,stimuli/mW-L_w0_O-X-X.png,stimuli/m0_wW-R_O-X-X.png,stimuli/m0_none_O-X-X.png,stimuli/m0_none_O-X-X.png,stimuli/m0_wW-L_O-X-X.png,0,19,19,13,,,,,,,,,206.17928789521102,212.85157106642146,213.58723263512366,213.58723263512366,213.58723263512366,214.4790092461044,214.4790092461044,left,0.5654723745537922,207.2335173242027,S2,K-M,2023-01-25_14h10.52.730,knowing_that_K_ONLY,2022.2.5,59.95606937186142,
Does Anna know that the book is here?,Does Anna think that the book is here?,Is the book here?,early,19,no_1,no_K,0,0,0,no,X-X-X,O-X-X,X-X-X,L,stimuli/blue-L.png,mB-L,m0,stimuli/m0_w0_X-X-X.png,stimuli/m0_wW-R_X-X-X.png,stimuli/m0_none_X-X-X.png,stimuli/mW-R_none_X-X-X.png,stimuli/mB-L_none_X-X-X.png,stimuli/mB-L_none_O-X-X.png,stimuli/mB-L_none_X-X-X.png,stimuli/mW-L_none_X-X-X.png,stimuli/m0_none_X-X-X.png,stimuli/m0_wW-L_X-X-X.png,0,20,20,18,,,,,,,,,215.0623277691193,221.7355361348018,222.47482662217226,222.47482662217226,222.47482662217226,223.36236575210933,223.36236575210933,right,0.056998374639078975,216.11510492488742,S2,K-M,2023-01-25_14h10.52.730,knowing_that_K_ONLY,2022.2.5,59.95606937186142,
Does Anna know that the book is here?,Does Anna think that the book is here?,Is the book here?,early,9,per_9,per_K,1,1,1,switch,X-O-B,X-B-O,X-B-X,M,stimuli/blue-M.png,mB-R,m0,stimuli/m0_w0_X-O-B.png,stimuli/m0_wW-R_X-O-B.png,stimuli/m0_none_X-O-B.png,stimuli/mW-R_none_X-O-B.png,stimuli/mB-R_none_X-O-B.png,stimuli/mB-R_none_X-B-O.png,stimuli/mB-R_none_X-B-X.png,stimuli/mW-L_none_X-B-X.png,stimuli/m0_none_X-B-X.png,stimuli/m0_wW-L_X-B-X.png,0,21,21,8,,,,,,,,,223.44586296204943,230.12054477399215,230.8586771641858,230.8586771641858,230.8586771641858,231.74595227348618,231.74595227348618,left,0.1211736457189545,224.50300527841318,S2,K-M,2023-01-25_14h10.52.730,knowing_that_K_ONLY,2022.2.5,59.95606937186142,
Does Anna know that the book is here?,Does Anna think that the book is here?,Is the book here?,early,28,no_10,no_K,0,0,0,hide,O-B-O,O-B-O,X-O-X,L,stimuli/blue-L.png,mB-M,m0,stimuli/m0_w0_O-B-O.png,stimuli/m0_wW-R_O-B-O.png,stimuli/m0_none_O-B-O.png,stimuli/mW-R_none_O-B-O.png,stimuli/mB-M_none_O-B-O.png,stimuli/mB-M_none_O-B-O.png,stimuli/mB-M_none_X-O-X.png,stimuli/mW-L_none_X-O-X.png,stimuli/m0_none_X-O-X.png,stimuli/m0_wW-L_X-O-X.png,0,22,22,27,,,,,,,,,231.8957783022197,238.57000682025682,239.3076708385488,239.3076708385488,239.3076708385488,240.19594781438354,240.19594781438354,right,0.11234034691005945,232.96008285682183,S2,K-M,2023-01-25_14h10.52.730,knowing_that_K_ONLY,2022.2.5,59.95606937186142,
Does Anna know that the book is here?,Does Anna think that the book is here?,Is the book here?,late,13,mem_4,mem_K,1,1,1,no,B-X-O,B-X-O,X-X-O,L,stimuli/blue-L.png,mB-M,m0,stimuli/m0_w0_B-X-O.png,stimuli/mW-R_w0_B-X-O.png,stimuli/mB-M_w0_B-X-O.png,stimuli/mB-M_w0_B-X-O.png,stimuli/mB-M_w0_X-X-O.png,stimuli/mW-L_w0_X-X-O.png,stimuli/m0_wW-R_X-X-O.png,stimuli/m0_none_X-X-O.png,stimuli/m0_none_X-X-O.png,stimuli/m0_wW-L_X-X-O.png,0,23,23,12,,,,,,,,,240.32938724779524,247.0041835862212,247.7187767669093,247.7187767669093,247.7187767669093,248.62937775207683,248.62937775207683,left,0.2067191801033914,241.3927775149932,S2,K-M,2023-01-25_14h10.52.730,knowing_that_K_ONLY,2022.2.5,59.95606937186142,
Does Anna know that the book is here?,Does Anna think that the book is here?,Is the book here?,early,8,per_8,per_K,1,1,1,switch,O-X-B,B-X-O,B-X-X,L,stimuli/blue-L.png,mB-L,m0,stimuli/m0_w0_O-X-B.png,stimuli/m0_wW-R_O-X-B.png,stimuli/m0_none_O-X-B.png,stimuli/mW-R_none_O-X-B.png,stimuli/mB-L_none_O-X-B.png,stimuli/mB-L_none_B-X-O.png,stimuli/mB-L_none_B-X-X.png,stimuli/mW-L_none_B-X-X.png,stimuli/m0_none_B-X-X.png,stimuli/m0_wW-L_B-X-X.png,0,24,24,7,,,,,,,,,248.86257363215555,255.53657983394805,256.27583631617017,256.27583631617017,256.27583631617017,257.1624861813616,257.1624861813616,left,0.017028940608724952,249.91515894804616,S2,K-M,2023-01-25_14h10.52.730,knowing_that_K_ONLY,2022.2.5,59.95606937186142,
Does Anna know that the book is here?,Does Anna think that the book is here?,Is the book here?,early,2,per_2,per_K,1,1,1,no,X-X-B,O-X-B,X-X-B,R,stimuli/blue-R.png,mB-L,m0,stimuli/m0_w0_X-X-B.png,stimuli/m0_wW-R_X-X-B.png,stimuli/m0_none_X-X-B.png,stimuli/mW-R_none_X-X-B.png,stimuli/mB-L_none_X-X-B.png,stimuli/mB-L_none_O-X-B.png,stimuli/mB-L_none_X-X-B.png,stimuli/mW-L_none_X-X-B.png,stimuli/m0_none_X-X-B.png,stimuli/m0_wW-L_X-X-B.png,0,25,25,1,,,,,,,,,257.1956786609953,263.8708843435161,264.6096477523679,264.6096477523679,264.6096477523679,265.4958369450178,265.4958369450178,left,0.5403204904869199,258.24746325367596,S2,K-M,2023-01-25_14h10.52.730,knowing_that_K_ONLY,2022.2.5,59.95606937186142,
Does Anna know that the book is here?,Does Anna think that the book is here?,Is the book here?,early,3,per_3,per_K,1,1,1,no,O-B-X,O-B-O,O-B-X,M,stimuli/blue-M.png,mB-R,m0,stimuli/m0_w0_O-B-X.png,stimuli/m0_wW-R_O-B-X.png,stimuli/m0_none_O-B-X.png,stimuli/mW-R_none_O-B-X.png,stimuli/mB-R_none_O-B-X.png,stimuli/mB-R_none_O-B-O.png,stimuli/mB-R_none_O-B-X.png,stimuli/mW-L_none_O-B-X.png,stimuli/m0_none_O-B-X.png,stimuli/m0_wW-L_O-B-X.png,0,26,26,2,,,,,,,,,266.06256259651855,272.73503536207136,273.4759978724178,273.4759978724178,273.4759978724178,274.362720880541,274.362720880541,left,0.16081361542455852,267.1180739526171,S2,K-M,2023-01-25_14h10.52.730,knowing_that_K_ONLY,2022.2.5,59.95606937186142,
Does Anna know that the book is here?,Does Anna think that the book is here?,Is the book here?,late,16,mem_7,mem_K,1,1,1,switch,B-X-O,O-X-B,O-X-X,R,stimuli/blue-R.png,mB-M,m0,stimuli/m0_w0_B-X-O.png,stimuli/mW-R_w0_B-X-O.png,stimuli/mB-M_w0_B-X-O.png,stimuli/mB-M_w0_O-X-B.png,stimuli/mB-M_w0_O-X-X.png,stimuli/mW-L_w0_O-X-X.png,stimuli/m0_wW-R_O-X-X.png,stimuli/m0_none_O-X-X.png,stimuli/m0_none_O-X-X.png,stimuli/m0_wW-L_O-X-X.png,0,27,27,15,,,,,,,,,274.546071740333,281.2212591372663,281.9581233947538,281.9581233947538,281.9581233947538,282.8457565198187,282.8457565198187,left,0.11832139012403786,275.60300489352085,S2,K-M,2023-01-25_14h10.52.730,knowing_that_K_ONLY,2022.2.5,59.95606937186142,
Does Anna know that the book is here?,Does Anna think that the book is here?,Is the book here?,late,16,mem_7,mem_K,1,1,1,switch,B-X-O,O-X-B,O-X-X,R,stimuli/blue-R.png,mB-M,m0,stimuli/m0_w0_B-X-O.png,stimuli/mW-R_w0_B-X-O.png,stimuli/mB-M_w0_B-X-O.png,stimuli/mB-M_w0_O-X-B.png,stimuli/mB-M_w0_O-X-X.png,stimuli/mW-L_w0_O-X-X.png,stimuli/m0_wW-R_O-X-X.png,stimuli/m0_none_O-X-X.png,stimuli/m0_none_O-X-X.png,stimuli/m0_wW-L_O-X-X.png,1,0,28,15,,,,,,,,,282.99574583710637,289.66789523349144,290.40757100482006,290.40757100482006,290.40757100482006,291.29581076744944,291.29581076744944,left,0.419707064749673,284.03468100354075,S2,K-M,2023-01-25_14h10.52.730,knowing_that_K_ONLY,2022.2.5,59.95606937186142,
Does Anna know that the book is here?,Does Anna think that the book is here?,Is the book here?,late,14,mem_5,mem_K,1,1,1,no,O-B-X,O-B-X,O-X-X,M,stimuli/blue-M.png,mB-L,m0,stimuli/m0_w0_O-B-X.png,stimuli/mW-R_w0_O-B-X.png,stimuli/mB-L_w0_O-B-X.png,stimuli/mB-L_w0_O-B-X.png,stimuli/mB-L_w0_O-X-X.png,stimuli/mW-L_w0_O-X-X.png,stimuli/m0_wW-R_O-X-X.png,stimuli/m0_none_O-X-X.png,stimuli/m0_none_O-X-X.png,stimuli/m0_wW-L_O-X-X.png,1,1,29,13,,,,,,,,,291.74598724104,298.39783592999447,299.1366586871445,299.1366586871445,299.1366586871445,300.04608713893685,300.04608713893685,left,0.14214868028648198,292.806954486412,S2,K-M,2023-01-25_14h10.52.730,knowing_that_K_ONLY,2022.2.5,59.95606937186142,
Does Anna know that the book is here?,Does Anna think that the book is here?,Is the book here?,early,24,no_6,no_K,0,0,0,no,X-X-X,X-X-O,X-X-X,R,stimuli/blue-R.png,mB-R,m0,stimuli/m0_w0_X-X-X.png,stimuli/m0_wW-R_X-X-X.png,stimuli/m0_none_X-X-X.png,stimuli/mW-R_none_X-X-X.png,stimuli/mB-R_none_X-X-X.png,stimuli/mB-R_none_X-X-O.png,stimuli/mB-R_none_X-X-X.png,stimuli/mW-L_none_X-X-X.png,stimuli/m0_none_X-X-X.png,stimuli/m0_wW-L_X-X-X.png,1,2,30,23,,,,,,,,,300.21255383861717,306.88229881983716,307.62284557009116,307.62284557009116,307.62284557009116,308.51260818261653,308.51260818261653,right,0.39477589284069836,301.2639586010482,S2,K-M,2023-01-25_14h10.52.730,knowing_that_K_ONLY,2022.2.5,59.95606937186142,
Does Anna know that the book is here?,Does Anna think that the book is here?,Is the book here?,early,9,per_9,per_K,1,1,1,switch,X-O-B,X-B-O,X-B-X,M,stimuli/blue-M.png,mB-R,m0,stimuli/m0_w0_X-O-B.png,stimuli/m0_wW-R_X-O-B.png,stimuli/m0_none_X-O-B.png,stimuli/mW-R_none_X-O-B.png,stimuli/mB-R_none_X-O-B.png,stimuli/mB-R_none_X-B-O.png,stimuli/mB-R_none_X-B-X.png,stimuli/mW-L_none_X-B-X.png,stimuli/m0_none_X-B-X.png,stimuli/m0_wW-L_X-B-X.png,1,3,31,8,,,,,,,,,308.92942567996215,315.58205199439544,316.3194827892585,316.3194827892585,316.3194827892585,317.22930229932535,317.22930229932535,left,0.1431248823646456,309.98244504164904,S2,K-M,2023-01-25_14h10.52.730,knowing_that_K_ONLY,2022.2.5,59.95606937186142,
Does Anna know that the book is here?,Does Anna think that the book is here?,Is the book here?,early,1,per_1,per_K,1,1,1,no,B-X-X,B-O-X,B-X-X,L,stimuli/blue-L.png,mB-M,m0,stimuli/m0_w0_B-X-X.png,stimuli/m0_wW-R_B-X-X.png,stimuli/m0_none_B-X-X.png,stimuli/mW-R_none_B-X-X.png,stimuli/mB-M_none_B-X-X.png,stimuli/mB-M_none_B-O-X.png,stimuli/mB-M_none_B-X-X.png,stimuli/mW-L_none_B-X-X.png,stimuli/m0_none_B-X-X.png,stimuli/m0_wW-L_B-X-X.png,1,4,32,0,,,,,,,,,317.3961613405263,324.07147770002484,324.8109186437214,324.8109186437214,324.8109186437214,325.6960376390489,325.6960376390489,left,0.0829294880386442,318.4531349147437,S2,K-M,2023-01-25_14h10.52.730,knowing_that_K_ONLY,2022.2.5,59.95606937186142,
Does Anna know that the book is here?,Does Anna think that the book is here?,Is the book here?,early,3,per_3,per_K,1,1,1,no,O-B-X,O-B-O,O-B-X,M,stimuli/blue-M.png,mB-R,m0,stimuli/m0_w0_O-B-X.png,stimuli/m0_wW-R_O-B-X.png,stimuli/m0_none_O-B-X.png,stimuli/mW-R_none_O-B-X.png,stimuli/mB-R_none_O-B-X.png,stimuli/mB-R_none_O-B-O.png,stimuli/mB-R_none_O-B-X.png,stimuli/mW-L_none_O-B-X.png,stimuli/m0_none_O-B-X.png,stimuli/m0_wW-L_O-B-X.png,1,5,33,2,,,,,,,,,325.79622428200673,332.47123908705544,333.21051577990875,333.21051577990875,333.21051577990875,334.095637341612,334.095637341612,left,0.12549485627096146,326.8549234532984,S2,K-M,2023-01-25_14h10.52.730,knowing_that_K_ONLY,2022.2.5,59.95606937186142,
Does Anna know that the book is here?,Does Anna think that the book is here?,Is the book here?,late,13,mem_4,mem_K,1,1,1,no,B-X-O,B-X-O,X-X-O,L,stimuli/blue-L.png,mB-M,m0,stimuli/m0_w0_B-X-O.png,stimuli/mW-R_w0_B-X-O.png,stimuli/mB-M_w0_B-X-O.png,stimuli/mB-M_w0_B-X-O.png,stimuli/mB-M_w0_X-X-O.png,stimuli/mW-L_w0_X-X-O.png,stimuli/m0_wW-R_X-X-O.png,stimuli/m0_none_X-X-O.png,stimuli/m0_none_X-X-O.png,stimuli/m0_wW-L_X-X-O.png,1,6,34,12,,,,,,,,,334.2458515415201,340.91801377013326,341.6585014926968,341.6585014926968,341.6585014926968,342.54594855220057,342.54594855220057,left,0.13714736816473305,335.3043396245921,S2,K-M,2023-01-25_14h10.52.730,knowing_that_K_ONLY,2022.2.5,59.95606937186142,
Does Anna know that the book is here?,Does Anna think that the book is here?,Is the book here?,early,21,no_3,no_K,0,0,0,no,X-X-O,X-O-O,X-X-O,M,stimuli/blue-M.png,mB-M,m0,stimuli/m0_w0_X-X-O.png,stimuli/m0_wW-R_X-X-O.png,stimuli/m0_none_X-X-O.png,stimuli/mW-R_none_X-X-O.png,stimuli/mB-M_none_X-X-O.png,stimuli/mB-M_none_X-O-O.png,stimuli/mB-M_none_X-X-O.png,stimuli/mW-L_none_X-X-O.png,stimuli/m0_none_X-X-O.png,stimuli/m0_wW-L_X-X-O.png,1,7,35,20,,,,,,,,,342.71264879615046,349.3845514955465,350.1221311427653,350.1221311427653,350.1221311427653,351.01276633830275,351.01276633830275,right,0.17432646127417684,343.77504521701485,S2,K-M,2023-01-25_14h10.52.730,knowing_that_K_ONLY,2022.2.5,59.95606937186142,
Does Anna know that the book is here?,Does Anna think that the book is here?,Is the book here?,early,19,no_1,no_K,0,0,0,no,X-X-X,O-X-X,X-X-X,L,stimuli/blue-L.png,mB-L,m0,stimuli/m0_w0_X-X-X.png,stimuli/m0_wW-R_X-X-X.png,stimuli/m0_none_X-X-X.png,stimuli/mW-R_none_X-X-X.png,stimuli/mB-L_none_X-X-X.png,stimuli/mB-L_none_O-X-X.png,stimuli/mB-L_none_X-X-X.png,stimuli/mW-L_none_X-X-X.png,stimuli/m0_none_X-X-X.png,stimuli/m0_wW-L_X-X-X.png,1,8,36,18,,,,,,,,,351.21266483631916,357.88679807586595,358.62479957856704,358.62479957856704,358.62479957856704,359.51267426786944,359.51267426786944,right,0.28255369991529733,352.2650053797988,S2,K-M,2023-01-25_14h10.52.730,knowing_that_K_ONLY,2022.2.5,59.95606937186142,
Does Anna know that the book is here?,Does Anna think that the book is here?,Is the book here?,early,22,no_4,no_K,0,0,0,no,O-X-X,O-O-X,O-X-X,M,stimuli/blue-M.png,mB-M,m0,stimuli/m0_w0_O-X-X.png,stimuli/m0_wW-R_O-X-X.png,stimuli/m0_none_O-X-X.png,stimuli/mW-R_none_O-X-X.png,stimuli/mB-M_none_O-X-X.png,stimuli/mB-M_none_O-O-X.png,stimuli/mB-M_none_O-X-X.png,stimuli/mW-L_none_O-X-X.png,stimuli/m0_none_O-X-X.png,stimuli/m0_wW-L_O-X-X.png,1,9,37,21,,,,,,,,,359.81269139877986,366.48650864779484,367.2246753637446,367.2246753637446,367.2246753637446,368.112680940656,368.112680940656,right,0.45979679957963526,360.86537455942016,S2,K-M,2023-01-25_14h10.52.730,knowing_that_K_ONLY,2022.2.5,59.95606937186142,
Does Anna know that the book is here?,Does Anna think that the book is here?,Is the book here?,early,7,per_7,per_K,1,1,1,switch,B-X-O,O-X-B,X-X-B,R,stimuli/blue-R.png,mB-R,m0,stimuli/m0_w0_B-X-O.png,stimuli/m0_wW-R_B-X-O.png,stimuli/m0_none_B-X-O.png,stimuli/mW-R_none_B-X-O.png,stimuli/mB-R_none_B-X-O.png,stimuli/mB-R_none_O-X-B.png,stimuli/mB-R_none_X-X-B.png,stimuli/mW-L_none_X-X-B.png,stimuli/m0_none_X-X-B.png,stimuli/m0_wW-L_X-X-B.png,1,10,38,6,,,,,,,,,368.5961089214543,375.26913635456003,376.0078647957416,376.0078647957416,376.0078647957416,376.89608883915935,376.89608883915935,left,0.002959823119454086,369.6502010469558,S2,K-M,2023-01-25_14h10.52.730,knowing_that_K_ONLY,2022.2.5,59.95606937186142,
Does Anna know that the book is here?,Does Anna think that the book is here?,Is the book here?,early,20,no_2,no_K,0,0,0,no,X-O-X,O-O-X,X-O-X,L,stimuli/blue-L.png,mB-L,m0,stimuli/m0_w0_X-O-X.png,stimuli/m0_wW-R_X-O-X.png,stimuli/m0_none_X-O-X.png,stimuli/mW-R_none_X-O-X.png,stimuli/mB-L_none_X-O-X.png,stimuli/mB-L_none_O-O-X.png,stimuli/mB-L_none_X-O-X.png,stimuli/mW-L_none_X-O-X.png,stimuli/m0_none_X-O-X.png,stimuli/m0_wW-L_X-O-X.png,1,11,39,19,,,,,,,,,376.9294705922948,383.6009443785297,384.3385596348671,384.3385596348671,384.3385596348671,385.22937255504075,385.22937255504075,right,0.22244107257574797,377.9921855700668,S2,K-M,2023-01-25_14h10.52.730,knowing_that_K_ONLY,2022.2.5,59.95606937186142,
Does Anna know that the book is here?,Does Anna think that the book is here?,Is the book here?,early,28,no_10,no_K,0,0,0,hide,O-B-O,O-B-O,X-O-X,L,stimuli/blue-L.png,mB-M,m0,stimuli/m0_w0_O-B-O.png,stimuli/m0_wW-R_O-B-O.png,stimuli/m0_none_O-B-O.png,stimuli/mW-R_none_O-B-O.png,stimuli/mB-M_none_O-B-O.png,stimuli/mB-M_none_O-B-O.png,stimuli/mB-M_none_X-O-X.png,stimuli/mW-L_none_X-O-X.png,stimuli/m0_none_X-O-X.png,stimuli/m0_wW-L_X-O-X.png,1,12,40,27,,,,,,,,,385.47965181362815,392.1532522002235,392.88988644222263,392.88988644222263,392.88988644222263,393.7793872798793,393.7793872798793,right,0.17661250045057386,386.54091676382814,S2,K-M,2023-01-25_14h10.52.730,knowing_that_K_ONLY,2022.2.5,59.95606937186142,
Does Anna know that the book is here?,Does Anna think that the book is here?,Is the book here?,early,26,no_8,no_K,0,0,0,hide,X-B-O,O-B-O,X-O-X,R,stimuli/blue-R.png,mB-L,m0,stimuli/m0_w0_X-B-O.png,stimuli/m0_wW-R_X-B-O.png,stimuli/m0_none_X-B-O.png,stimuli/mW-R_none_X-B-O.png,stimuli/mB-L_none_X-B-O.png,stimuli/mB-L_none_O-B-O.png,stimuli/mB-L_none_X-O-X.png,stimuli/mW-L_none_X-O-X.png,stimuli/m0_none_X-O-X.png,stimuli/m0_wW-L_X-O-X.png,1,13,41,25,,,,,,,,,393.9793669410283,400.6523821835872,401.39243265229743,401.39243265229743,401.39243265229743,402.2795990095474,402.2795990095474,right,0.27617101196665317,395.0348555201199,S2,K-M,2023-01-25_14h10.52.730,knowing_that_K_ONLY,2022.2.5,59.95606937186142,
Does Anna know that the book is here?,Does Anna think that the book is here?,Is the book here?,late,4,per_4,per_K,1,1,1,no,O-X-B,O-O-B,O-X-B,R,stimuli/blue-R.png,mB-M,m0,stimuli/m0_w0_O-X-B.png,stimuli/mW-R_w0_O-X-B.png,stimuli/mB-M_w0_O-X-B.png,stimuli/mB-M_w0_O-O-B.png,stimuli/mB-M_w0_O-X-B.png,stimuli/mW-L_w0_O-X-B.png,stimuli/m0_wW-R_O-X-B.png,stimuli/m0_none_O-X-B.png,stimuli/m0_none_O-X-B.png,stimuli/m0_wW-L_O-X-B.png,1,14,42,3,,,,,,,,,402.5794592680177,409.2517020179657,409.9902033309918,409.9902033309918,409.9902033309918,410.8796246096026,410.8796246096026,left,0.3794671942014247,403.63081751402933,S2,K-M,2023-01-25_14h10.52.730,knowing_that_K_ONLY,2022.2.5,59.95606937186142,
Does Anna know that the book is here?,Does Anna think that the book is here?,Is the book here?,late,12,mem_3,mem_K,1,1,1,no,X-O-B,X-O-B,X-O-X,R,stimuli/blue-R.png,mB-M,m0,stimuli/m0_w0_X-O-B.png,stimuli/mW-R_w0_X-O-B.png,stimuli/mB-M_w0_X-O-B.png,stimuli/mB-M_w0_X-O-B.png,stimuli/mB-M_w0_X-O-X.png,stimuli/mW-L_w0_X-O-X.png,stimuli/m0_wW-R_X-O-X.png,stimuli/m0_none_X-O-X.png,stimuli/m0_none_X-O-X.png,stimuli/m0_wW-L_X-O-X.png,1,15,43,11,,,,,,,,,411.27963814744726,417.9514770070091,418.6919875065796,418.6919875065796,418.6919875065796,419.57931137795094,419.57931137795094,left,0.8398663625121117,412.3342166097136,S2,K-M,2023-01-25_14h10.52.730,knowing_that_K_ONLY,2022.2.5,59.95606937186142,
Does Anna know that the book is here?,Does Anna think that the book is here?,Is the book here?,late,18,mem_9,mem_K,1,1,1,switch,X-O-B,X-B-O,X-X-O,M,stimuli/blue-M.png,mB-L,m0,stimuli/m0_w0_X-O-B.png,stimuli/mW-R_w0_X-O-B.png,stimuli/mB-L_w0_X-O-B.png,stimuli/mB-L_w0_X-B-O.png,stimuli/mB-L_w0_X-X-O.png,stimuli/mW-L_w0_X-X-O.png,stimuli/m0_wW-R_X-X-O.png,stimuli/m0_none_X-X-O.png,stimuli/m0_none_X-X-O.png,stimuli/m0_wW-L_X-X-O.png,1,16,44,17,,,,,,,,,420.446136927465,427.1196057848865,427.83742431458086,427.83742431458086,427.83742431458086,428.74623522139154,428.74623522139154,left,0.16248660092242062,421.503195835161,S2,K-M,2023-01-25_14h10.52.730,knowing_that_K_ONLY,2022.2.5,59.95606937186142,
Does Anna know that the book is here?,Does Anna think that the book is here?,Is the book here?,late,6,per_6,per_K,1,1,1,no,X-B-X,O-B-X,X-B-X,M,stimuli/blue-M.png,mB-L,m0,stimuli/m0_w0_X-B-X.png,stimuli/mW-R_w0_X-B-X.png,stimuli/mB-L_w0_X-B-X.png,stimuli/mB-L_w0_O-B-X.png,stimuli/mB-L_w0_X-B-X.png,stimuli/mW-L_w0_X-B-X.png,stimuli/m0_wW-R_X-B-X.png,stimuli/m0_none_X-B-X.png,stimuli/m0_none_X-B-X.png,stimuli/m0_wW-L_X-B-X.png,1,17,45,5,,,,,,,,,428.9297147230245,435.60216856119223,436.34207274380606,436.34207274380606,436.34207274380606,437.2295839639846,437.2295839639846,left,0.1496416658628732,429.9942974135047,S2,K-M,2023-01-25_14h10.52.730,knowing_that_K_ONLY,2022.2.5,59.95606937186142,
Does Anna know that the book is here?,Does Anna think that the book is here?,Is the book here?,early,8,per_8,per_K,1,1,1,switch,O-X-B,B-X-O,B-X-X,L,stimuli/blue-L.png,mB-L,m0,stimuli/m0_w0_O-X-B.png,stimuli/m0_wW-R_O-X-B.png,stimuli/m0_none_O-X-B.png,stimuli/mW-R_none_O-X-B.png,stimuli/mB-L_none_O-X-B.png,stimuli/mB-L_none_B-X-O.png,stimuli/mB-L_none_B-X-X.png,stimuli/mW-L_none_B-X-X.png,stimuli/m0_none_B-X-X.png,stimuli/m0_wW-L_B-X-X.png,1,18,46,7,,,,,,,,,437.39616358617786,444.07346860074904,444.8099992235657,444.8099992235657,444.8099992235657,445.6964088076493,445.6964088076493,left,0.2913398406235501,438.45599005767144,S2,K-M,2023-01-25_14h10.52.730,knowing_that_K_ONLY,2022.2.5,59.95606937186142,
Does Anna know that the book is here?,Does Anna think that the book is here?,Is the book here?,late,11,mem_2,mem_K,1,1,1,no,O-B-O,O-B-X,O-X-X,M,stimuli/blue-M.png,mB-L,m0,stimuli/m0_w0_O-B-O.png,stimuli/mW-R_w0_O-B-O.png,stimuli/mB-L_w0_O-B-O.png,stimuli/mB-L_w0_O-B-X.png,stimuli/mB-L_w0_O-X-X.png,stimuli/mW-L_w0_O-X-X.png,stimuli/m0_wW-R_O-X-X.png,stimuli/m0_none_O-X-X.png,stimuli/m0_none_O-X-X.png,stimuli/m0_wW-L_O-X-X.png,1,19,47,10,,,,,,,,,446.0129485541256,452.6861270852387,453.42271898139734,453.42271898139734,453.42271898139734,454.31296151457354,454.31296151457354,left,0.1390920733101666,447.0688631590456,S2,K-M,2023-01-25_14h10.52.730,knowing_that_K_ONLY,2022.2.5,59.95606937186142,
Does Anna know that the book is here?,Does Anna think that the book is here?,Is the book here?,late,17,mem_8,mem_K,1,1,1,switch,O-X-B,B-X-O,X-X-O,L,stimuli/blue-L.png,mB-M,m0,stimuli/m0_w0_O-X-B.png,stimuli/mW-R_w0_O-X-B.png,stimuli/mB-M_w0_O-X-B.png,stimuli/mB-M_w0_B-X-O.png,stimuli/mB-M_w0_X-X-O.png,stimuli/mW-L_w0_X-X-O.png,stimuli/m0_wW-R_X-X-O.png,stimuli/m0_none_X-X-O.png,stimuli/m0_none_X-X-O.png,stimuli/m0_wW-L_X-X-O.png,1,20,48,16,,,,,,,,,454.4795190014411,461.153858837788,461.89039234793745,461.89039234793745,461.89039234793745,462.77937508933246,462.77937508933246,left,0.07190799480304122,455.53155606565997,S2,K-M,2023-01-25_14h10.52.730,knowing_that_K_ONLY,2022.2.5,59.95606937186142,
Does Anna know that the book is here?,Does Anna think that the book is here?,Is the book here?,late,10,mem_1,mem_K,1,1,1,no,O-X-B,X-X-B,X-X-X,R,stimuli/blue-R.png,mB-M,m0,stimuli/m0_w0_O-X-B.png,stimuli/mW-R_w0_O-X-B.png,stimuli/mB-M_w0_O-X-B.png,stimuli/mB-M_w0_X-X-B.png,stimuli/mB-M_w0_X-X-X.png,stimuli/mW-L_w0_X-X-X.png,stimuli/m0_wW-R_X-X-X.png,stimuli/m0_none_X-X-X.png,stimuli/m0_none_X-X-X.png,stimuli/m0_wW-L_X-X-X.png,1,21,49,9,,,,,,,,,462.87938079971354,469.5536901598098,470.2942680278793,470.2942680278793,470.2942680278793,471.1797392644221,471.1797392644221,left,0.024151720106601715,463.93327178200707,S2,K-M,2023-01-25_14h10.52.730,knowing_that_K_ONLY,2022.2.5,59.95606937186142,
Does Anna know that the book is here?,Does Anna think that the book is here?,Is the book here?,early,25,no_7,no_K,0,0,0,hide,B-X-X,B-O-O,O-X-X,M,stimuli/blue-M.png,mB-L,m0,stimuli/m0_w0_B-X-X.png,stimuli/m0_wW-R_B-X-X.png,stimuli/m0_none_B-X-X.png,stimuli/mW-R_none_B-X-X.png,stimuli/mB-L_none_B-X-X.png,stimuli/mB-L_none_B-O-O.png,stimuli/mB-L_none_O-X-X.png,stimuli/mW-L_none_O-X-X.png,stimuli/m0_none_O-X-X.png,stimuli/m0_wW-L_O-X-X.png,1,22,50,24,,,,,,,,,471.2294883647701,477.9033325612545,478.6406282981625,478.6406282981625,478.6406282981625,479.5296607640339,479.5296607640339,right,0.09838415193371475,472.2885481180856,S2,K-M,2023-01-25_14h10.52.730,knowing_that_K_ONLY,2022.2.5,59.95606937186142,
Does Anna know that the book is here?,Does Anna think that the book is here?,Is the book here?,early,23,no_5,no_K,0,0,0,no,X-O-X,X-O-O,X-O-X,R,stimuli/blue-R.png,mB-R,m0,stimuli/m0_w0_X-O-X.png,stimuli/m0_wW-R_X-O-X.png,stimuli/m0_none_X-O-X.png,stimuli/mW-R_none_X-O-X.png,stimuli/mB-R_none_X-O-X.png,stimuli/mB-R_none_X-O-O.png,stimuli/mB-R_none_X-O-X.png,stimuli/mW-L_none_X-O-X.png,stimuli/m0_none_X-O-X.png,stimuli/m0_wW-L_X-O-X.png,1,23,51,22,,,,,,,,,479.6461804283317,486.320571913966,487.05530058871955,487.05530058871955,487.05530058871955,487.9460814286722,487.9460814286722,right,0.3225917855743319,480.7095941141015,S2,K-M,2023-01-25_14h10.52.730,knowing_that_K_ONLY,2022.2.5,59.95606937186142,
Does Anna know that the book is here?,Does Anna think that the book is here?,Is the book here?,early,2,per_2,per_K,1,1,1,no,X-X-B,O-X-B,X-X-B,R,stimuli/blue-R.png,mB-L,m0,stimuli/m0_w0_X-X-B.png,stimuli/m0_wW-R_X-X-B.png,stimuli/m0_none_X-X-B.png,stimuli/mW-R_none_X-X-B.png,stimuli/mB-L_none_X-X-B.png,stimuli/mB-L_none_O-X-B.png,stimuli/mB-L_none_X-X-B.png,stimuli/mW-L_none_X-X-B.png,stimuli/m0_none_X-X-B.png,stimuli/m0_wW-L_X-X-B.png,1,24,52,1,,,,,,,,,488.29614696861245,494.9476270554587,495.68570651311893,495.68570651311893,495.68570651311893,496.59636010986287,496.59636010986287,left,0.0877104087267071,489.357891197782,S2,K-M,2023-01-25_14h10.52.730,knowing_that_K_ONLY,2022.2.5,59.95606937186142,
Does Anna know that the book is here?,Does Anna think that the book is here?,Is the book here?,late,15,mem_6,mem_K,1,1,1,no,X-B-O,X-B-X,X-X-X,M,stimuli/blue-M.png,mB-R,m0,stimuli/m0_w0_X-B-O.png,stimuli/mW-R_w0_X-B-O.png,stimuli/mB-R_w0_X-B-O.png,stimuli/mB-R_w0_X-B-X.png,stimuli/mB-R_w0_X-X-X.png,stimuli/mW-L_w0_X-X-X.png,stimuli/m0_wW-R_X-X-X.png,stimuli/m0_none_X-X-X.png,stimuli/m0_none_X-X-X.png,stimuli/m0_wW-L_X-X-X.png,1,25,53,14,,,,,,,,,496.712829408003,503.3851334314095,504.12450187373906,504.12450187373906,504.12450187373906,505.0130261883605,505.0130261883605,left,0.11159672657959163,497.76730777986813,S2,K-M,2023-01-25_14h10.52.730,knowing_that_K_ONLY,2022.2.5,59.95606937186142,
Does Anna know that the book is here?,Does Anna think that the book is here?,Is the book here?,late,5,per_5,per_K,1,1,1,no,X-B-O,O-B-O,X-B-O,M,stimuli/blue-M.png,mB-L,m0,stimuli/m0_w0_X-B-O.png,stimuli/mW-R_w0_X-B-O.png,stimuli/mB-L_w0_X-B-O.png,stimuli/mB-L_w0_O-B-O.png,stimuli/mB-L_w0_X-B-O.png,stimuli/mW-L_w0_X-B-O.png,stimuli/m0_wW-R_X-B-O.png,stimuli/m0_none_X-B-O.png,stimuli/m0_none_X-B-O.png,stimuli/m0_wW-L_X-B-O.png,1,26,54,4,,,,,,,,,505.1463979324326,511.8000386245549,512.5591883951565,512.5591883951565,512.5591883951565,513.4461677245563,513.4461677245563,left,0.07809627649839967,506.200439050328,S2,K-M,2023-01-25_14h10.52.730,knowing_that_K_ONLY,2022.2.5,59.95606937186142,
Does Anna know that the book is here?,Does Anna think that the book is here?,Is the book here?,early,27,no_9,no_K,0,0,0,hide,X-X-B,O-O-B,X-X-O,L,stimuli/blue-L.png,mB-M,m0,stimuli/m0_w0_X-X-B.png,stimuli/m0_wW-R_X-X-B.png,stimuli/m0_none_X-X-B.png,stimuli/mW-R_none_X-X-B.png,stimuli/mB-M_none_X-X-B.png,stimuli/mB-M_none_O-O-B.png,stimuli/mB-M_none_X-X-O.png,stimuli/mW-L_none_X-X-O.png,stimuli/m0_none_X-X-O.png,stimuli/m0_wW-L_X-X-O.png,1,27,55,26,,,,,,,,,513.5461939661764,520.2212289817398,520.958036778029,520.958036778029,520.958036778029,521.8465482605388,521.8465482605388,right,0.10075327882077545,514.6028935749782,S2,K-M,2023-01-25_14h10.52.730,knowing_that_K_ONLY,2022.2.5,59.95606937186142,
Does Anna know that the book is here?,Does Anna think that the book is here?,Is the book here?,late,13,mem_4,mem_K,1,1,1,no,B-X-O,B-X-O,X-X-O,L,stimuli/blue-L.png,mB-M,m0,stimuli/m0_w0_B-X-O.png,stimuli/mW-R_w0_B-X-O.png,stimuli/mB-M_w0_B-X-O.png,stimuli/mB-M_w0_B-X-O.png,stimuli/mB-M_w0_X-X-O.png,stimuli/mW-L_w0_X-X-O.png,stimuli/m0_wW-R_X-X-O.png,stimuli/m0_none_X-X-O.png,stimuli/m0_none_X-X-O.png,stimuli/m0_wW-L_X-X-O.png,2,0,56,12,,,,,,,,,521.9795889363158,528.651283434825,529.390841471497,529.390841471497,529.390841471497,530.2796359019121,530.2796359019121,left,0.059949437505565584,523.037956076907,S2,K-M,2023-01-25_14h10.52.730,knowing_that_K_ONLY,2022.2.5,59.95606937186142,
Does Anna know that the book is here?,Does Anna think that the book is here?,Is the book here?,early,21,no_3,no_K,0,0,0,no,X-X-O,X-O-O,X-X-O,M,stimuli/blue-M.png,mB-M,m0,stimuli/m0_w0_X-X-O.png,stimuli/m0_wW-R_X-X-O.png,stimuli/m0_none_X-X-O.png,stimuli/mW-R_none_X-X-O.png,stimuli/mB-M_none_X-X-O.png,stimuli/mB-M_none_X-O-O.png,stimuli/mB-M_none_X-X-O.png,stimuli/mW-L_none_X-X-O.png,stimuli/m0_none_X-X-O.png,stimuli/m0_wW-L_X-X-O.png,2,1,57,20,,,,,,,,,530.3629816930043,537.0346097853035,537.7733411138179,537.7733411138179,537.7733411138179,538.6628961670212,538.6628961670212,right,0.2132840839913115,531.4234786418965,S2,K-M,2023-01-25_14h10.52.730,knowing_that_K_ONLY,2022.2.5,59.95606937186142,
Does Anna know that the book is here?,Does Anna think that the book is here?,Is the book here?,early,28,no_10,no_K,0,0,0,hide,O-B-O,O-B-O,X-O-X,L,stimuli/blue-L.png,mB-M,m0,stimuli/m0_w0_O-B-O.png,stimuli/m0_wW-R_O-B-O.png,stimuli/m0_none_O-B-O.png,stimuli/mW-R_none_O-B-O.png,stimuli/mB-M_none_O-B-O.png,stimuli/mB-M_none_O-B-O.png,stimuli/mB-M_none_X-O-X.png,stimuli/mW-L_none_X-O-X.png,stimuli/m0_none_X-O-X.png,stimuli/m0_wW-L_X-O-X.png,2,2,58,27,,,,,,,,,538.8959682174027,545.5694457364734,546.3092831922695,546.3092831922695,546.3092831922695,547.1964097700547,547.1964097700547,right,0.25552030885592103,539.9567657582229,S2,K-M,2023-01-25_14h10.52.730,knowing_that_K_ONLY,2022.2.5,59.95606937186142,
Does Anna know that the book is here?,Does Anna think that the book is here?,Is the book here?,late,4,per_4,per_K,1,1,1,no,O-X-B,O-O-B,O-X-B,R,stimuli/blue-R.png,mB-M,m0,stimuli/m0_w0_O-X-B.png,stimuli/mW-R_w0_O-X-B.png,stimuli/mB-M_w0_O-X-B.png,stimuli/mB-M_w0_O-O-B.png,stimuli/mB-M_w0_O-X-B.png,stimuli/mW-L_w0_O-X-B.png,stimuli/m0_wW-R_O-X-B.png,stimuli/m0_none_O-X-B.png,stimuli/m0_none_O-X-B.png,stimuli/m0_wW-L_O-X-B.png,2,3,59,3,,,,,,,,,547.4797887963941,554.1526574322488,554.8942435827339,554.8942435827339,554.8942435827339,555.7795573052717,555.7795573052717,left,0.18429219315294176,548.5379637761507,S2,K-M,2023-01-25_14h10.52.730,knowing_that_K_ONLY,2022.2.5,59.95606937186142,
Does Anna know that the book is here?,Does Anna think that the book is here?,Is the book here?,late,10,mem_1,mem_K,1,1,1,no,O-X-B,X-X-B,X-X-X,R,stimuli/blue-R.png,mB-M,m0,stimuli/m0_w0_O-X-B.png,stimuli/mW-R_w0_O-X-B.png,stimuli/mB-M_w0_O-X-B.png,stimuli/mB-M_w0_X-X-B.png,stimuli/mB-M_w0_X-X-X.png,stimuli/mW-L_w0_X-X-X.png,stimuli/m0_wW-R_X-X-X.png,stimuli/m0_none_X-X-X.png,stimuli/m0_none_X-X-X.png,stimuli/m0_wW-L_X-X-X.png,2,4,60,9,,,,,,,,,555.9963483043248,562.6686741422163,563.4075751751661,563.4075751751661,563.4075751751661,564.2963955905288,564.2963955905288,left,0.09974563797004521,557.0490285776323,S2,K-M,2023-01-25_14h10.52.730,knowing_that_K_ONLY,2022.2.5,59.95606937186142,
Does Anna know that the book is here?,Does Anna think that the book is here?,Is the book here?,early,1,per_1,per_K,1,1,1,no,B-X-X,B-O-X,B-X-X,L,stimuli/blue-L.png,mB-M,m0,stimuli/m0_w0_B-X-X.png,stimuli/m0_wW-R_B-X-X.png,stimuli/m0_none_B-X-X.png,stimuli/mW-R_none_B-X-X.png,stimuli/mB-M_none_B-X-X.png,stimuli/mB-M_none_B-O-X.png,stimuli/mB-M_none_B-X-X.png,stimuli/mW-L_none_B-X-X.png,stimuli/m0_none_B-X-X.png,stimuli/m0_wW-L_B-X-X.png,2,5,61,0,,,,,,,,,564.4131738216383,571.0866112405201,571.8229968606029,571.8229968606029,571.8229968606029,572.7131826116238,572.7131826116238,left,0.026875654817558825,565.4715499447193,S2,K-M,2023-01-25_14h10.52.730,knowing_that_K_ONLY,2022.2.5,59.95606937186142,
Does Anna know that the book is here?,Does Anna think that the book is here?,Is the book here?,late,18,mem_9,mem_K,1,1,1,switch,X-O-B,X-B-O,X-X-O,M,stimuli/blue-M.png,mB-L,m0,stimuli/m0_w0_X-O-B.png,stimuli/mW-R_w0_X-O-B.png,stimuli/mB-L_w0_X-O-B.png,stimuli/mB-L_w0_X-B-O.png,stimuli/mB-L_w0_X-X-O.png,stimuli/mW-L_w0_X-X-O.png,stimuli/m0_wW-R_X-X-O.png,stimuli/m0_none_X-X-O.png,stimuli/m0_none_X-X-O.png,stimuli/m0_wW-L_X-X-O.png,2,6,62,17,,,,,,,,,572.7630664490862,579.4364682587329,580.175215627416,580.175215627416,580.175215627416,581.0630685022334,581.0630685022334,left,0.10896069183945656,573.824314396712,S2,K-M,2023-01-25_14h10.52.730,knowing_that_K_ONLY,2022.2.5,59.95606937186142,
Does Anna know that the book is here?,Does Anna think that the book is here?,Is the book here?,late,17,mem_8,mem_K,1,1,1,switch,O-X-B,B-X-O,X-X-O,L,stimuli/blue-L.png,mB-M,m0,stimuli/m0_w0_O-X-B.png,stimuli/mW-R_w0_O-X-B.png,stimuli/mB-M_w0_O-X-B.png,stimuli/mB-M_w0_B-X-O.png,stimuli/mB-M_w0_X-X-O.png,stimuli/mW-L_w0_X-X-O.png,stimuli/m0_wW-R_X-X-O.png,stimuli/m0_none_X-X-O.png,stimuli/m0_none_X-X-O.png,stimuli/m0_wW-L_X-X-O.png,2,7,63,16,,,,,,,,,581.1966670537367,587.8715067005251,588.6124124288326,588.6124124288326,588.6124124288326,589.4963499082951,589.4963499082951,left,0.011723507661372423,582.2585161854513,S2,K-M,2023-01-25_14h10.52.730,knowing_that_K_ONLY,2022.2.5,59.95606937186142,
Does Anna know that the book is here?,Does Anna think that the book is here?,Is the book here?,early,20,no_2,no_K,0,0,0,no,X-O-X,O-O-X,X-O-X,L,stimuli/blue-L.png,mB-L,m0,stimuli/m0_w0_X-O-X.png,stimuli/m0_wW-R_X-O-X.png,stimuli/m0_none_X-O-X.png,stimuli/mW-R_none_X-O-X.png,stimuli/mB-L_none_X-O-X.png,stimuli/mB-L_none_O-O-X.png,stimuli/mB-L_none_X-O-X.png,stimuli/mW-L_none_X-O-X.png,stimuli/m0_none_X-O-X.png,stimuli/m0_wW-L_X-O-X.png,2,8,64,19,,,,,,,,,589.5298173157498,596.1768061665352,596.926763660158,596.926763660158,596.926763660158,597.8296037894906,597.8296037894906,right,0.1819307655096054,590.5836351549951,S2,K-M,2023-01-25_14h10.52.730,knowing_that_K_ONLY,2022.2.5,59.95606937186142,
Does Anna know that the book is here?,Does Anna think that the book is here?,Is the book here?,early,24,no_6,no_K,0,0,0,no,X-X-X,X-X-O,X-X-X,R,stimuli/blue-R.png,mB-R,m0,stimuli/m0_w0_X-X-X.png,stimuli/m0_wW-R_X-X-X.png,stimuli/m0_none_X-X-X.png,stimuli/mW-R_none_X-X-X.png,stimuli/mB-R_none_X-X-X.png,stimuli/mB-R_none_X-X-O.png,stimuli/mB-R_none_X-X-X.png,stimuli/mW-L_none_X-X-X.png,stimuli/m0_none_X-X-X.png,stimuli/m0_wW-L_X-X-X.png,2,9,65,23,,,,,,,,,598.0296049444005,604.6739308130927,605.4420932111097,605.4420932111097,605.4420932111097,606.3293202000204,606.3293202000204,right,0.0182114188792184,599.0700966449222,S2,K-M,2023-01-25_14h10.52.730,knowing_that_K_ONLY,2022.2.5,59.95606937186142,
Does Anna know that the book is here?,Does Anna think that the book is here?,Is the book here?,late,14,mem_5,mem_K,1,1,1,no,O-B-X,O-B-X,O-X-X,M,stimuli/blue-M.png,mB-L,m0,stimuli/m0_w0_O-B-X.png,stimuli/mW-R_w0_O-B-X.png,stimuli/mB-L_w0_O-B-X.png,stimuli/mB-L_w0_O-B-X.png,stimuli/mB-L_w0_O-X-X.png,stimuli/mW-L_w0_O-X-X.png,stimuli/m0_wW-R_O-X-X.png,stimuli/m0_none_O-X-X.png,stimuli/m0_none_O-X-X.png,stimuli/m0_wW-L_O-X-X.png,2,10,66,13,,,,,,,,,606.3794375817524,613.0556278073927,613.793702132185,613.793702132185,613.793702132185,614.6798743223771,614.6798743223771,left,0.02800359670072794,607.4260418544291,S2,K-M,2023-01-25_14h10.52.730,knowing_that_K_ONLY,2022.2.5,59.95606937186142,
Does Anna know that the book is here?,Does Anna think that the book is here?,Is the book here?,early,2,per_2,per_K,1,1,1,no,X-X-B,O-X-B,X-X-B,R,stimuli/blue-R.png,mB-L,m0,stimuli/m0_w0_X-X-B.png,stimuli/m0_wW-R_X-X-B.png,stimuli/m0_none_X-X-B.png,stimuli/mW-R_none_X-X-B.png,stimuli/mB-L_none_X-X-B.png,stimuli/mB-L_none_O-X-B.png,stimuli/mB-L_none_X-X-B.png,stimuli/mW-L_none_X-X-B.png,stimuli/m0_none_X-X-B.png,stimuli/m0_wW-L_X-X-B.png,2,11,67,1,,,,,,,,,614.7298110921402,621.406169418362,622.1414418534841,622.1414418534841,622.1414418534841,623.0296543480363,623.0296543480363,left,0.12614865193609148,615.7877374499803,S2,K-M,2023-01-25_14h10.52.730,knowing_that_K_ONLY,2022.2.5,59.95606937186142,
Does Anna know that the book is here?,Does Anna think that the book is here?,Is the book here?,early,9,per_9,per_K,1,1,1,switch,X-O-B,X-B-O,X-B-X,M,stimuli/blue-M.png,mB-R,m0,stimuli/m0_w0_X-O-B.png,stimuli/m0_wW-R_X-O-B.png,stimuli/m0_none_X-O-B.png,stimuli/mW-R_none_X-O-B.png,stimuli/mB-R_none_X-O-B.png,stimuli/mB-R_none_X-B-O.png,stimuli/mB-R_none_X-B-X.png,stimuli/mW-L_none_X-B-X.png,stimuli/m0_none_X-B-X.png,stimuli/m0_wW-L_X-B-X.png,2,12,68,8,,,,,,,,,623.1796828032238,629.8547126859194,630.5915368432179,630.5915368432179,630.5915368432179,631.4797599241138,631.4797599241138,left,0.428016492864117,624.242351585417,S2,K-M,2023-01-25_14h10.52.730,knowing_that_K_ONLY,2022.2.5,59.95606937186142,
Does Anna know that the book is here?,Does Anna think that the book is here?,Is the book here?,late,15,mem_6,mem_K,1,1,1,no,X-B-O,X-B-X,X-X-X,M,stimuli/blue-M.png,mB-R,m0,stimuli/m0_w0_X-B-O.png,stimuli/mW-R_w0_X-B-O.png,stimuli/mB-R_w0_X-B-O.png,stimuli/mB-R_w0_X-B-X.png,stimuli/mB-R_w0_X-X-X.png,stimuli/mW-L_w0_X-X-X.png,stimuli/m0_wW-R_X-X-X.png,stimuli/m0_none_X-X-X.png,stimuli/m0_none_X-X-X.png,stimuli/m0_wW-L_X-X-X.png,2,13,69,14,,,,,,,,,631.9299235654762,638.603934579296,639.3398598476779,639.3398598476779,639.3398598476779,640.2297690670239,640.2297690670239,left,0.31772456888575107,632.9915295288665,S2,K-M,2023-01-25_14h10.52.730,knowing_that_K_ONLY,2022.2.5,59.95606937186142,
Does Anna know that the book is here?,Does Anna think that the book is here?,Is the book here?,early,23,no_5,no_K,0,0,0,no,X-O-X,X-O-O,X-O-X,R,stimuli/blue-R.png,mB-R,m0,stimuli/m0_w0_X-O-X.png,stimuli/m0_wW-R_X-O-X.png,stimuli/m0_none_X-O-X.png,stimuli/mW-R_none_X-O-X.png,stimuli/mB-R_none_X-O-X.png,stimuli/mB-R_none_X-O-O.png,stimuli/mB-R_none_X-O-X.png,stimuli/mW-L_none_X-O-X.png,stimuli/m0_none_X-O-X.png,stimuli/m0_wW-L_X-O-X.png,2,14,70,22,,,,,,,,,640.5797653136542,647.2540217413334,647.9911795333028,647.9911795333028,647.9911795333028,648.880177352461,648.880177352461,right,0.3073738740058616,641.6424700258067,S2,K-M,2023-01-25_14h10.52.730,knowing_that_K_ONLY,2022.2.5,59.95606937186142,
Does Anna know that the book is here?,Does Anna think that the book is here?,Is the book here?,early,25,no_7,no_K,0,0,0,hide,B-X-X,B-O-O,O-X-X,M,stimuli/blue-M.png,mB-L,m0,stimuli/m0_w0_B-X-X.png,stimuli/m0_wW-R_B-X-X.png,stimuli/m0_none_B-X-X.png,stimuli/mW-R_none_B-X-X.png,stimuli/mB-L_none_B-X-X.png,stimuli/mB-L_none_B-O-O.png,stimuli/mB-L_none_O-X-X.png,stimuli/mW-L_none_O-X-X.png,stimuli/m0_none_O-X-X.png,stimuli/m0_wW-L_O-X-X.png,2,15,71,24,,,,,,,,,649.2131194135873,655.8886770165991,656.6263772855746,656.6263772855746,656.6263772855746,657.513383883168,657.513383883168,right,0.10741859395056963,650.2678916405421,S2,K-M,2023-01-25_14h10.52.730,knowing_that_K_ONLY,2022.2.5,59.95606937186142,
Does Anna know that the book is here?,Does Anna think that the book is here?,Is the book here?,late,12,mem_3,mem_K,1,1,1,no,X-O-B,X-O-B,X-O-X,R,stimuli/blue-R.png,mB-M,m0,stimuli/m0_w0_X-O-B.png,stimuli/mW-R_w0_X-O-B.png,stimuli/mB-M_w0_X-O-B.png,stimuli/mB-M_w0_X-O-B.png,stimuli/mB-M_w0_X-O-X.png,stimuli/mW-L_w0_X-O-X.png,stimuli/m0_wW-R_X-O-X.png,stimuli/m0_none_X-O-X.png,stimuli/m0_none_X-O-X.png,stimuli/m0_wW-L_X-O-X.png,2,16,72,11,,,,,,,,,657.6466812010622,664.2970429701963,665.0584354714956,665.0584354714956,665.0584354714956,665.946727204253,665.946727204253,left,0.6575148025294766,658.7028194054728,S2,K-M,2023-01-25_14h10.52.730,knowing_that_K_ONLY,2022.2.5,59.95606937186142,
Does Anna know that the book is here?,Does Anna think that the book is here?,Is the book here?,early,7,per_7,per_K,1,1,1,switch,B-X-O,O-X-B,X-X-B,R,stimuli/blue-R.png,mB-R,m0,stimuli/m0_w0_B-X-O.png,stimuli/m0_wW-R_B-X-O.png,stimuli/m0_none_B-X-O.png,stimuli/mW-R_none_B-X-O.png,stimuli/mB-R_none_B-X-O.png,stimuli/mB-R_none_O-X-B.png,stimuli/mB-R_none_X-X-B.png,stimuli/mW-L_none_X-X-B.png,stimuli/m0_none_X-X-B.png,stimuli/m0_wW-L_X-X-B.png,2,17,73,6,,,,,,,,,666.6300726104528,673.3018931841943,674.0416321535595,674.0416321535595,674.0416321535595,674.9297981316922,674.9297981316922,left,0.03460763837210834,667.6913677160628,S2,K-M,2023-01-25_14h10.52.730,knowing_that_K_ONLY,2022.2.5,59.95606937186142,
Does Anna know that the book is here?,Does Anna think that the book is here?,Is the book here?,early,3,per_3,per_K,1,1,1,no,O-B-X,O-B-O,O-B-X,M,stimuli/blue-M.png,mB-R,m0,stimuli/m0_w0_O-B-X.png,stimuli/m0_wW-R_O-B-X.png,stimuli/m0_none_O-B-X.png,stimuli/mW-R_none_O-B-X.png,stimuli/mB-R_none_O-B-X.png,stimuli/mB-R_none_O-B-O.png,stimuli/mB-R_none_O-B-X.png,stimuli/mW-L_none_O-B-X.png,stimuli/m0_none_O-B-X.png,stimuli/m0_wW-L_O-B-X.png,2,18,74,2,,,,,,,,,674.9965879437514,681.6696362290531,682.4093796897214,682.4093796897214,682.4093796897214,683.2965919217095,683.2965919217095,left,0.45132023317273706,676.0607215105556,S2,K-M,2023-01-25_14h10.52.730,knowing_that_K_ONLY,2022.2.5,59.95606937186142,
Does Anna know that the book is here?,Does Anna think that the book is here?,Is the book here?,early,19,no_1,no_K,0,0,0,no,X-X-X,O-X-X,X-X-X,L,stimuli/blue-L.png,mB-L,m0,stimuli/m0_w0_X-X-X.png,stimuli/m0_wW-R_X-X-X.png,stimuli/m0_none_X-X-X.png,stimuli/mW-R_none_X-X-X.png,stimuli/mB-L_none_X-X-X.png,stimuli/mB-L_none_O-X-X.png,stimuli/mB-L_none_X-X-X.png,stimuli/mW-L_none_X-X-X.png,stimuli/m0_none_X-X-X.png,stimuli/m0_wW-L_X-X-X.png,2,19,75,18,,,,,,,,,683.7799390603323,690.454379307921,691.1686260218266,691.1686260218266,691.1686260218266,692.079910957953,692.079910957953,right,0.34039344103075564,684.8409714286681,S2,K-M,2023-01-25_14h10.52.730,knowing_that_K_ONLY,2022.2.5,59.95606937186142,
Does Anna know that the book is here?,Does Anna think that the book is here?,Is the book here?,early,22,no_4,no_K,0,0,0,no,O-X-X,O-O-X,O-X-X,M,stimuli/blue-M.png,mB-M,m0,stimuli/m0_w0_O-X-X.png,stimuli/m0_wW-R_O-X-X.png,stimuli/m0_none_O-X-X.png,stimuli/mW-R_none_O-X-X.png,stimuli/mB-M_none_O-X-X.png,stimuli/mB-M_none_O-O-X.png,stimuli/mB-M_none_O-X-X.png,stimuli/mW-L_none_O-X-X.png,stimuli/m0_none_O-X-X.png,stimuli/m0_wW-L_O-X-X.png,2,20,76,21,,,,,,,,,692.446520928177,699.1206249747192,699.8603485454805,699.8603485454805,699.8603485454805,700.7462098780088,700.7462098780088,right,0.01785115769598633,693.5005299658515,S2,K-M,2023-01-25_14h10.52.730,knowing_that_K_ONLY,2022.2.5,59.95606937186142,
Does Anna know that the book is here?,Does Anna think that the book is here?,Is the book here?,late,5,per_5,per_K,1,1,1,no,X-B-O,O-B-O,X-B-O,M,stimuli/blue-M.png,mB-L,m0,stimuli/m0_w0_X-B-O.png,stimuli/mW-R_w0_X-B-O.png,stimuli/mB-L_w0_X-B-O.png,stimuli/mB-L_w0_O-B-O.png,stimuli/mB-L_w0_X-B-O.png,stimuli/mW-L_w0_X-B-O.png,stimuli/m0_wW-R_X-B-O.png,stimuli/m0_none_X-B-O.png,stimuli/m0_none_X-B-O.png,stimuli/m0_wW-L_X-B-O.png,2,21,77,4,,,,,,,,,700.7962932545925,707.4704473463353,708.2092505345354,708.2092505345354,708.2092505345354,709.096534626442,709.096534626442,left,0.2434433753369376,701.8496536294697,S2,K-M,2023-01-25_14h10.52.730,knowing_that_K_ONLY,2022.2.5,59.95606937186142,
Does Anna know that the book is here?,Does Anna think that the book is here?,Is the book here?,late,6,per_6,per_K,1,1,1,no,X-B-X,O-B-X,X-B-X,M,stimuli/blue-M.png,mB-L,m0,stimuli/m0_w0_X-B-X.png,stimuli/mW-R_w0_X-B-X.png,stimuli/mB-L_w0_X-B-X.png,stimuli/mB-L_w0_O-B-X.png,stimuli/mB-L_w0_X-B-X.png,stimuli/mW-L_w0_X-B-X.png,stimuli/m0_wW-R_X-B-X.png,stimuli/m0_none_X-B-X.png,stimuli/m0_none_X-B-X.png,stimuli/m0_wW-L_X-B-X.png,2,22,78,5,,,,,,,,,709.3632332022535,716.0400586170144,716.7752251873026,716.7752251873026,716.7752251873026,717.6632833757903,717.6632833757903,left,0.02058888680767268,710.4188860323047,S2,K-M,2023-01-25_14h10.52.730,knowing_that_K_ONLY,2022.2.5,59.95606937186142,
Does Anna know that the book is here?,Does Anna think that the book is here?,Is the book here?,late,11,mem_2,mem_K,1,1,1,no,O-B-O,O-B-X,O-X-X,M,stimuli/blue-M.png,mB-L,m0,stimuli/m0_w0_O-B-O.png,stimuli/mW-R_w0_O-B-O.png,stimuli/mB-L_w0_O-B-O.png,stimuli/mB-L_w0_O-B-X.png,stimuli/mB-L_w0_O-X-X.png,stimuli/mW-L_w0_O-X-X.png,stimuli/m0_wW-R_O-X-X.png,stimuli/m0_none_O-X-X.png,stimuli/m0_none_O-X-X.png,stimuli/m0_wW-L_O-X-X.png,2,23,79,10,,,,,,,,,717.7132576794829,724.3893628924852,725.1238621934317,725.1238621934317,725.1238621934317,726.0135138082551,726.0135138082551,right,1.0228319383459166,718.7735858862288,S2,K-M,2023-01-25_14h10.52.730,knowing_that_K_ONLY,2022.2.5,59.95606937186142,
Does Anna know that the book is here?,Does Anna think that the book is here?,Is the book here?,early,26,no_8,no_K,0,0,0,hide,X-B-O,O-B-O,X-O-X,R,stimuli/blue-R.png,mB-L,m0,stimuli/m0_w0_X-B-O.png,stimuli/m0_wW-R_X-B-O.png,stimuli/m0_none_X-B-O.png,stimuli/mW-R_none_X-B-O.png,stimuli/mB-L_none_X-B-O.png,stimuli/mB-L_none_O-B-O.png,stimuli/mB-L_none_X-O-X.png,stimuli/mW-L_none_X-O-X.png,stimuli/m0_none_X-O-X.png,stimuli/m0_wW-L_X-O-X.png,2,24,80,25,,,,,,,,,727.0634415956447,733.7381455429131,734.4753944427939,734.4753944427939,734.4753944427939,735.3635232077213,735.3635232077213,right,0.09740185434930027,728.1253035593545,S2,K-M,2023-01-25_14h10.52.730,knowing_that_K_ONLY,2022.2.5,59.95606937186142,
Does Anna know that the book is here?,Does Anna think that the book is here?,Is the book here?,early,27,no_9,no_K,0,0,0,hide,X-X-B,O-O-B,X-X-O,L,stimuli/blue-L.png,mB-M,m0,stimuli/m0_w0_X-X-B.png,stimuli/m0_wW-R_X-X-B.png,stimuli/m0_none_X-X-B.png,stimuli/mW-R_none_X-X-B.png,stimuli/mB-M_none_X-X-B.png,stimuli/mB-M_none_O-O-B.png,stimuli/mB-M_none_X-X-O.png,stimuli/mW-L_none_X-X-O.png,stimuli/m0_none_X-X-O.png,stimuli/m0_wW-L_X-X-O.png,2,25,81,26,,,,,,,,,735.4800977292471,742.1548789900262,742.8934220074443,742.8934220074443,742.8934220074443,743.7799711405532,743.7799711405532,right,0.14533328730612993,736.5422243551584,S2,K-M,2023-01-25_14h10.52.730,knowing_that_K_ONLY,2022.2.5,59.95606937186142,
Does Anna know that the book is here?,Does Anna think that the book is here?,Is the book here?,late,16,mem_7,mem_K,1,1,1,switch,B-X-O,O-X-B,O-X-X,R,stimuli/blue-R.png,mB-M,m0,stimuli/m0_w0_B-X-O.png,stimuli/mW-R_w0_B-X-O.png,stimuli/mB-M_w0_B-X-O.png,stimuli/mB-M_w0_O-X-B.png,stimuli/mB-M_w0_O-X-X.png,stimuli/mW-L_w0_O-X-X.png,stimuli/m0_wW-R_O-X-X.png,stimuli/m0_none_O-X-X.png,stimuli/m0_none_O-X-X.png,stimuli/m0_wW-L_O-X-X.png,2,26,82,15,,,,,,,,,743.9460669924738,750.6226081761997,751.3564719673013,751.3564719673013,751.3564719673013,752.2299506412819,752.2299506412819,left,0.3022930028382689,745.001762168482,S2,K-M,2023-01-25_14h10.52.730,knowing_that_K_ONLY,2022.2.5,59.95606937186142,
Does Anna know that the book is here?,Does Anna think that the book is here?,Is the book here?,early,8,per_8,per_K,1,1,1,switch,O-X-B,B-X-O,B-X-X,L,stimuli/blue-L.png,mB-L,m0,stimuli/m0_w0_O-X-B.png,stimuli/m0_wW-R_O-X-B.png,stimuli/m0_none_O-X-B.png,stimuli/mW-R_none_O-X-B.png,stimuli/mB-L_none_O-X-B.png,stimuli/mB-L_none_B-X-O.png,stimuli/mB-L_none_B-X-X.png,stimuli/mW-L_none_B-X-X.png,stimuli/m0_none_B-X-X.png,stimuli/m0_wW-L_B-X-X.png,2,27,83,7,,,,,,,,,752.5634727134602,759.2360314540565,759.9755651097512,759.9755651097512,759.9755651097512,760.8633551072562,760.8633551072562,left,0.5092045658966526,753.6181990656769,S2,K-M,2023-01-25_14h10.52.730,knowing_that_K_ONLY,2022.2.5,59.95606937186142,
