K_text,B_text,T_text,Anna_exit,trial_num,trial_code,cond,K_hit,B_hit,T_hit,book_move,start_shelf,mid_shelf,mid_shelf_2,end_shelf,rectangle,rectangle_B,rectangle_T,rectangle_path,rectangle_path_B,rectangle_path_T,Todd_mid,Todd_final,frame_1,frame_2,frame_3,frame_4,frame_5,frame_6,frame_7,frame_8,frame_9,frame_10,trials.thisRepN,trials.thisTrialN,trials.thisN,trials.thisIndex,frames.thisRepN,frames.thisTrialN,frames.thisN,frames.thisIndex,sessionInst.started,startSession.started,startSession.keys,startSession.rt,crossText.started,movingImage.started,staticImage.started,promptText3.started,rectImage.started,respText.started,keyResp.started,keyResp.keys,keyResp.rt,crossText.stopped,subject,session,date,expName,psychopyVersion,frameRate,
,,,,,,,,,,,,,,,,,,,,,,,,,,,,,,,,,,,,,,,,,23.963121819659136,23.963121819659136,left,10.280553325661458,,,,,,,,,,,S2,K-A,2023-01-25_13h33.38.143,knowing_that_K_ONLY,2022.2.5,60.00512045264978,
Does Anna know that the book is here?,Does Anna think that the book is here?,Is the book here?,early,45,mem_5,mem_K,0,1,0,switch,O-X-O,O-B-O,B-X-O,X-X-O,L,M,M,stimuli/blue-L.png,stimuli/blue-M.png,stimuli/blue-M.png,mB-R,m0,stimuli/m0_w0_O-X-O.png,stimuli/m0_wW-R_O-X-O.png,stimuli/m0_none_O-X-O.png,stimuli/mW-R_none_O-X-O.png,stimuli/mB-R_none_O-B-O.png,stimuli/mB-R_none_B-X-O.png,stimuli/mB-R_none_X-X-O.png,stimuli/mW-L_none_X-X-O.png,stimuli/m0_none_X-X-O.png,stimuli/m0_wW-L_X-X-O.png,0,0,0,16,,,,,,,,,34.2838746663183,40.91938520106487,41.67346757417545,41.67346757417545,41.67346757417545,42.56861678266432,42.56861678266432,right,0.4517181790433824,,S2,K-A,2023-01-25_13h33.38.143,knowing_that_K_ONLY,2022.2.5,60.00512045264978,
Does Anna know that the book is here?,Does Anna think that the book is here?,Is the book here?,late,40,per_12,per_K,1,1,1,show,O-X-X,O-B-X,none,O-B-X,M,M,M,stimuli/blue-M.png,stimuli/blue-M.png,stimuli/blue-M.png,mB-M,m0,stimuli/m0_w0_O-X-X.png,stimuli/mW-R_w0_O-X-X.png,stimuli/mB-M_w0_O-X-X.png,stimuli/mB-M_w0_O-B-X.png,stimuli/mB-M_w0_O-B-X.png,stimuli/mW-L_w0_O-B-X.png,stimuli/m0_wW-R_O-B-X.png,stimuli/m0_none_O-B-X.png,stimuli/m0_none_O-B-X.png,stimuli/m0_wW-L_O-B-X.png,0,1,1,11,,,,,,,,,43.0517448130995,49.703532870393246,50.46786007354967,50.46786007354967,50.46786007354967,51.35222486208659,51.35222486208659,left,0.0521110980771482,44.09676913311705,S2,K-A,2023-01-25_13h33.38.143,knowing_that_K_ONLY,2022.2.5,60.00512045264978,
Does Anna know that the book is here?,Does Anna think that the book is here?,Is the book here?,early,35,per_7,per_K,1,0,1,switch,B-X-O,O-X-B,none,X-X-B,R,L,R,stimuli/blue-R.png,stimuli/blue-L.png,stimuli/blue-R.png,mB-R,m0,stimuli/m0_w0_B-X-O.png,stimuli/m0_wW-R_B-X-O.png,stimuli/m0_none_B-X-O.png,stimuli/mW-R_none_B-X-O.png,stimuli/mB-R_none_B-X-O.png,stimuli/mB-R_none_O-X-B.png,stimuli/mB-R_none_X-X-B.png,stimuli/mW-L_none_X-X-B.png,stimuli/m0_none_X-X-B.png,stimuli/m0_wW-L_X-X-B.png,0,2,2,6,,,,,,,,,51.4355234951945,58.087901829276234,58.85007163521368,58.85007163521368,58.85007163521368,59.73561376903672,59.73561376903672,left,0.4359250684501603,52.48567295714747,S2,K-A,2023-01-25_13h33.38.143,knowing_that_K_ONLY,2022.2.5,60.00512045264978,
Does Anna know that the book is here?,Does Anna think that the book is here?,Is the book here?,early,43,mem_3,mem_K,0,1,0,switch,O-O-X,O-O-B,B-O-X,X-O-X,L,R,R,stimuli/blue-L.png,stimuli/blue-R.png,stimuli/blue-R.png,mB-M,m0,stimuli/m0_w0_O-O-X.png,stimuli/m0_wW-R_O-O-X.png,stimuli/m0_none_O-O-X.png,stimuli/mW-R_none_O-O-X.png,stimuli/mB-M_none_O-O-B.png,stimuli/mB-M_none_B-O-X.png,stimuli/mB-M_none_X-O-X.png,stimuli/mW-L_none_X-O-X.png,stimuli/m0_none_X-O-X.png,stimuli/m0_wW-L_X-O-X.png,0,3,3,14,,,,,,,,,60.202114923042245,66.85436525684781,67.59094335848931,67.59094335848931,67.59094335848931,68.50224850524683,68.50224850524683,right,0.11066302075050771,61.25641941977665,S2,K-A,2023-01-25_13h33.38.143,knowing_that_K_ONLY,2022.2.5,60.00512045264978,
Does Anna know that the book is here?,Does Anna think that the book is here?,Is the book here?,late,34,per_6,per_K,1,0,1,no,X-B-X,O-B-X,none,X-B-X,M,R,M,stimuli/blue-M.png,stimuli/blue-R.png,stimuli/blue-M.png,mB-L,m0,stimuli/m0_w0_X-B-X.png,stimuli/mW-R_w0_X-B-X.png,stimuli/mB-L_w0_X-B-X.png,stimuli/mB-L_w0_O-B-X.png,stimuli/mB-L_w0_X-B-X.png,stimuli/mW-L_w0_X-B-X.png,stimuli/m0_wW-R_X-B-X.png,stimuli/m0_none_X-B-X.png,stimuli/m0_none_X-B-X.png,stimuli/m0_wW-L_X-B-X.png,0,4,4,5,,,,,,,,,68.63557694095653,75.30936178890988,76.0474778180942,76.0474778180942,76.0474778180942,76.93513917375822,76.93513917375822,left,0.3407775922678411,69.69029848114587,S2,K-A,2023-01-25_13h33.38.143,knowing_that_K_ONLY,2022.2.5,60.00512045264978,
Does Anna know that the book is here?,Does Anna think that the book is here?,Is the book here?,early,49,mem_9,mem_K,0,1,0,switch,X-O-O,B-O-O,X-B-O,X-X-O,M,L,L,stimuli/blue-M.png,stimuli/blue-L.png,stimuli/blue-L.png,mB-R,m0,stimuli/m0_w0_X-O-O.png,stimuli/m0_wW-R_X-O-O.png,stimuli/m0_none_X-O-O.png,stimuli/mW-R_none_X-O-O.png,stimuli/mB-R_none_B-O-O.png,stimuli/mB-R_none_X-B-O.png,stimuli/mB-R_none_X-X-O.png,stimuli/mW-L_none_X-X-O.png,stimuli/m0_none_X-X-O.png,stimuli/m0_wW-L_X-X-O.png,0,5,5,20,,,,,,,,,77.30185372557025,83.953144859639,84.69186688482296,84.69186688482296,84.69186688482296,85.60220160381868,85.60220160381868,right,0.36983075633179396,78.35840255720541,S2,K-A,2023-01-25_13h33.38.143,knowing_that_K_ONLY,2022.2.5,60.00512045264978,
Does Anna know that the book is here?,Does Anna think that the book is here?,Is the book here?,early,29,per_1,per_K,1,0,1,no,B-X-X,B-O-X,none,B-X-X,L,M,L,stimuli/blue-L.png,stimuli/blue-M.png,stimuli/blue-L.png,mB-M,m0,stimuli/m0_w0_B-X-X.png,stimuli/m0_wW-R_B-X-X.png,stimuli/m0_none_B-X-X.png,stimuli/mW-R_none_B-X-X.png,stimuli/mB-M_none_B-X-X.png,stimuli/mB-M_none_B-O-X.png,stimuli/mB-M_none_B-X-X.png,stimuli/mW-L_none_B-X-X.png,stimuli/m0_none_B-X-X.png,stimuli/m0_wW-L_B-X-X.png,0,6,6,0,,,,,,,,,86.00228411424905,92.653274014825,93.39163385389838,93.39163385389838,93.39163385389838,94.30201188125648,94.30201188125648,left,0.18228957324754447,87.06151293055154,S2,K-A,2023-01-25_13h33.38.143,knowing_that_K_ONLY,2022.2.5,60.00512045264978,
Does Anna know that the book is here?,Does Anna think that the book is here?,Is the book here?,early,41,mem_1,mem_K,0,1,0,switch,O-O-X,O-O-B,O-B-X,O-X-X,M,R,R,stimuli/blue-M.png,stimuli/blue-R.png,stimuli/blue-R.png,mB-L,m0,stimuli/m0_w0_O-O-X.png,stimuli/m0_wW-R_O-O-X.png,stimuli/m0_none_O-O-X.png,stimuli/mW-R_none_O-O-X.png,stimuli/mB-L_none_O-O-B.png,stimuli/mB-L_none_O-B-X.png,stimuli/mB-L_none_O-X-X.png,stimuli/mW-L_none_O-X-X.png,stimuli/m0_none_O-X-X.png,stimuli/m0_wW-L_O-X-X.png,0,7,7,12,,,,,,,,,94.50224369310308,101.17311661620624,101.89189787441865,101.89189787441865,101.89189787441865,102.80183415662032,102.80183415662032,right,0.11461113812401891,95.55291798803955,S2,K-A,2023-01-25_13h33.38.143,knowing_that_K_ONLY,2022.2.5,60.00512045264978,
Does Anna know that the book is here?,Does Anna think that the book is here?,Is the book here?,early,44,mem_4,mem_K,0,1,0,switch,O-X-O,O-B-O,O-X-B,O-X-X,R,M,M,stimuli/blue-R.png,stimuli/blue-M.png,stimuli/blue-M.png,mB-L,m0,stimuli/m0_w0_O-X-O.png,stimuli/m0_wW-R_O-X-O.png,stimuli/m0_none_O-X-O.png,stimuli/mW-R_none_O-X-O.png,stimuli/mB-L_none_O-B-O.png,stimuli/mB-L_none_O-X-B.png,stimuli/mB-L_none_O-X-X.png,stimuli/mW-L_none_O-X-X.png,stimuli/m0_none_O-X-X.png,stimuli/m0_wW-L_O-X-X.png,0,8,8,15,,,,,,,,,102.93541987601202,109.58577490819152,110.3229096023133,110.3229096023133,110.3229096023133,111.23560093692504,111.23560093692504,right,0.09722235554363579,103.9830378848128,S2,K-A,2023-01-25_13h33.38.143,knowing_that_K_ONLY,2022.2.5,60.00512045264978,
Does Anna know that the book is here?,Does Anna think that the book is here?,Is the book here?,early,46,mem_6,mem_K,0,1,0,switch,O-X-O,O-B-O,O-X-B,O-X-X,R,M,M,stimuli/blue-R.png,stimuli/blue-M.png,stimuli/blue-M.png,mB-L,m0,stimuli/m0_w0_O-X-O.png,stimuli/m0_wW-R_O-X-O.png,stimuli/m0_none_O-X-O.png,stimuli/mW-R_none_O-X-O.png,stimuli/mB-L_none_O-B-O.png,stimuli/mB-L_none_O-X-B.png,stimuli/mB-L_none_O-X-X.png,stimuli/mW-L_none_O-X-X.png,stimuli/m0_none_O-X-X.png,stimuli/m0_wW-L_O-X-X.png,0,9,9,17,,,,,,,,,111.35228838096373,118.00462982268073,118.74381861567963,118.74381861567963,118.74381861567963,119.65233662968967,119.65233662968967,right,0.02394495310727507,112.40528721129522,S2,K-A,2023-01-25_13h33.38.143,knowing_that_K_ONLY,2022.2.5,60.00512045264978,
Does Anna know that the book is here?,Does Anna think that the book is here?,Is the book here?,early,30,per_2,per_K,1,0,1,no,X-X-B,O-X-B,none,X-X-B,R,L,R,stimuli/blue-R.png,stimuli/blue-L.png,stimuli/blue-R.png,mB-L,m0,stimuli/m0_w0_X-X-B.png,stimuli/m0_wW-R_X-X-B.png,stimuli/m0_none_X-X-B.png,stimuli/mW-R_none_X-X-B.png,stimuli/mB-L_none_X-X-B.png,stimuli/mB-L_none_O-X-B.png,stimuli/mB-L_none_X-X-B.png,stimuli/mW-L_none_X-X-B.png,stimuli/m0_none_X-X-B.png,stimuli/m0_wW-L_X-X-B.png,0,10,10,1,,,,,,,,,119.70230323413853,126.35370119544677,127.0936182102887,127.0936182102887,127.0936182102887,128.00230592885055,128.00230592885055,left,0.034269342198967934,120.76184322894551,S2,K-A,2023-01-25_13h33.38.143,knowing_that_K_ONLY,2022.2.5,60.00512045264978,
Does Anna know that the book is here?,Does Anna think that the book is here?,Is the book here?,early,47,mem_7,mem_K,0,1,0,switch,X-O-O,B-O-O,X-O-B,X-O-X,R,L,L,stimuli/blue-R.png,stimuli/blue-L.png,stimuli/blue-L.png,mB-M,m0,stimuli/m0_w0_X-O-O.png,stimuli/m0_wW-R_X-O-O.png,stimuli/m0_none_X-O-O.png,stimuli/mW-R_none_X-O-O.png,stimuli/mB-M_none_B-O-O.png,stimuli/mB-M_none_X-O-B.png,stimuli/mB-M_none_X-O-X.png,stimuli/mW-L_none_X-O-X.png,stimuli/m0_none_X-O-X.png,stimuli/m0_wW-L_X-O-X.png,0,11,11,18,,,,,,,,,128.06877269269899,134.71876457647886,135.4575475541642,135.4575475541642,135.4575475541642,136.36914431047626,136.36914431047626,right,0.1865588140208274,129.13086146395653,S2,K-A,2023-01-25_13h33.38.143,knowing_that_K_ONLY,2022.2.5,60.00512045264978,
Does Anna know that the book is here?,Does Anna think that the book is here?,Is the book here?,late,51,mem_11,mem_K,1,1,1,show,O-X-O,O-B-O,O-X-B,O-X-X,R,R,R,stimuli/blue-R.png,stimuli/blue-R.png,stimuli/blue-R.png,mB-L,m0,stimuli/m0_w0_O-X-O.png,stimuli/mW-R_w0_O-X-O.png,stimuli/mB-L_w0_O-B-O.png,stimuli/mB-L_w0_O-X-B.png,stimuli/mB-L_w0_O-X-X.png,stimuli/mW-L_w0_O-X-X.png,stimuli/m0_wW-R_O-X-X.png,stimuli/m0_none_O-X-X.png,stimuli/m0_none_O-X-X.png,stimuli/m0_wW-L_O-X-X.png,0,12,12,22,,,,,,,,,136.58523178950418,143.23680105945095,143.97588430834003,143.97588430834003,143.97588430834003,144.88565313152503,144.88565313152503,left,0.4628477826481685,137.63675364479423,S2,K-A,2023-01-25_13h33.38.143,knowing_that_K_ONLY,2022.2.5,60.00512045264978,
Does Anna know that the book is here?,Does Anna think that the book is here?,Is the book here?,early,48,mem_8,mem_K,0,1,0,switch,X-O-O,B-O-O,X-B-O,X-X-O,M,L,L,stimuli/blue-M.png,stimuli/blue-L.png,stimuli/blue-L.png,mB-R,m0,stimuli/m0_w0_X-O-O.png,stimuli/m0_wW-R_X-O-O.png,stimuli/m0_none_X-O-O.png,stimuli/mW-R_none_X-O-O.png,stimuli/mB-R_none_B-O-O.png,stimuli/mB-R_none_X-B-O.png,stimuli/mB-R_none_X-X-O.png,stimuli/mW-L_none_X-X-O.png,stimuli/m0_none_X-X-O.png,stimuli/m0_wW-L_X-X-O.png,0,13,13,19,,,,,,,,,145.36884500167798,152.01926355273463,152.779596122331,152.779596122331,152.779596122331,153.66877519502304,153.66877519502304,right,0.13476812606677413,146.41958024911582,S2,K-A,2023-01-25_13h33.38.143,knowing_that_K_ONLY,2022.2.5,60.00512045264978,
Does Anna know that the book is here?,Does Anna think that the book is here?,Is the book here?,late,38,per_10,per_K,1,1,1,show,X-X-X,X-O-X,none,X-O-B,R,R,R,stimuli/blue-R.png,stimuli/blue-R.png,stimuli/blue-R.png,mB-R,m0,stimuli/m0_w0_X-X-X.png,stimuli/mW-R_w0_X-X-X.png,stimuli/mB-R_w0_X-X-X.png,stimuli/mB-R_w0_X-O-X.png,stimuli/mB-R_w0_X-O-B.png,stimuli/mW-L_w0_X-O-B.png,stimuli/m0_wW-R_X-O-B.png,stimuli/m0_none_X-O-B.png,stimuli/m0_none_X-O-B.png,stimuli/m0_wW-L_X-O-B.png,0,14,14,9,,,,,,,,,153.83550527365878,160.4863103919197,161.22424003470223,161.22424003470223,161.22424003470223,162.13559169787914,162.13559169787914,left,0.021110983099788427,154.8807907269802,S2,K-A,2023-01-25_13h33.38.143,knowing_that_K_ONLY,2022.2.5,60.00512045264978,
Does Anna know that the book is here?,Does Anna think that the book is here?,Is the book here?,early,31,per_3,per_K,1,0,1,no,O-B-X,O-B-O,none,O-B-X,M,R,M,stimuli/blue-M.png,stimuli/blue-R.png,stimuli/blue-M.png,mB-R,m0,stimuli/m0_w0_O-B-X.png,stimuli/m0_wW-R_O-B-X.png,stimuli/m0_none_O-B-X.png,stimuli/mW-R_none_O-B-X.png,stimuli/mB-R_none_O-B-X.png,stimuli/mB-R_none_O-B-O.png,stimuli/mB-R_none_O-B-X.png,stimuli/mW-L_none_O-B-X.png,stimuli/m0_none_O-B-X.png,stimuli/m0_wW-L_O-B-X.png,0,15,15,2,,,,,,,,,162.18553841253743,168.83730529691093,169.57548741134815,169.57548741134815,169.57548741134815,170.4856104006758,170.4856104006758,left,0.06325513764750212,163.2446674592793,S2,K-A,2023-01-25_13h33.38.143,knowing_that_K_ONLY,2022.2.5,60.00512045264978,
Does Anna know that the book is here?,Does Anna think that the book is here?,Is the book here?,late,52,mem_12,mem_K,1,1,1,show,X-O-O,B-O-O,X-O-B,X-O-X,R,R,R,stimuli/blue-R.png,stimuli/blue-R.png,stimuli/blue-R.png,mB-M,m0,stimuli/m0_w0_X-O-O.png,stimuli/mW-R_w0_X-O-O.png,stimuli/mB-M_w0_B-O-O.png,stimuli/mB-M_w0_X-O-B.png,stimuli/mB-M_w0_X-O-X.png,stimuli/mW-L_w0_X-O-X.png,stimuli/m0_wW-R_X-O-X.png,stimuli/m0_none_X-O-X.png,stimuli/m0_none_X-O-X.png,stimuli/m0_wW-L_X-O-X.png,0,16,16,23,,,,,,,,,170.56888657761738,177.2407851065509,177.95816060784273,177.95816060784273,177.95816060784273,178.86891589907464,178.86891589907464,left,0.047963441582396626,171.6307222356554,S2,K-A,2023-01-25_13h33.38.143,knowing_that_K_ONLY,2022.2.5,60.00512045264978,
Does Anna know that the book is here?,Does Anna think that the book is here?,Is the book here?,late,33,per_5,per_K,1,0,1,no,X-B-O,O-B-O,none,X-B-O,M,R,M,stimuli/blue-M.png,stimuli/blue-R.png,stimuli/blue-M.png,mB-L,m0,stimuli/m0_w0_X-B-O.png,stimuli/mW-R_w0_X-B-O.png,stimuli/mB-L_w0_X-B-O.png,stimuli/mB-L_w0_O-B-O.png,stimuli/mB-L_w0_X-B-O.png,stimuli/mW-L_w0_X-B-O.png,stimuli/m0_wW-R_X-B-O.png,stimuli/m0_none_X-B-O.png,stimuli/m0_none_X-B-O.png,stimuli/m0_wW-L_X-B-O.png,0,17,17,4,,,,,,,,,178.93576088908594,185.60821601049975,186.34725787583739,186.34725787583739,186.34725787583739,187.23529809934553,187.23529809934553,left,0.2887758163269609,179.98867021559272,S2,K-A,2023-01-25_13h33.38.143,knowing_that_K_ONLY,2022.2.5,60.00512045264978,
Does Anna know that the book is here?,Does Anna think that the book is here?,Is the book here?,late,50,mem_10,mem_K,1,1,1,show,O-O-X,O-O-B,O-B-X,O-X-X,M,M,M,stimuli/blue-M.png,stimuli/blue-M.png,stimuli/blue-M.png,mB-L,m0,stimuli/m0_w0_O-O-X.png,stimuli/mW-R_w0_O-O-X.png,stimuli/mB-L_w0_O-O-B.png,stimuli/mB-L_w0_O-B-X.png,stimuli/mB-L_w0_O-X-X.png,stimuli/mW-L_w0_O-X-X.png,stimuli/m0_wW-R_O-X-X.png,stimuli/m0_none_O-X-X.png,stimuli/m0_none_O-X-X.png,stimuli/m0_wW-L_O-X-X.png,0,18,18,21,,,,,,,,,187.5520255153533,194.20336958183907,194.94037242606282,194.94037242606282,194.94037242606282,195.85225245112088,195.85225245112088,left,0.04046660626772791,188.59990561986342,S2,K-A,2023-01-25_13h33.38.143,knowing_that_K_ONLY,2022.2.5,60.00512045264978,
Does Anna know that the book is here?,Does Anna think that the book is here?,Is the book here?,early,42,mem_2,mem_K,0,1,0,switch,O-O-X,O-O-B,B-O-X,X-O-X,L,R,R,stimuli/blue-L.png,stimuli/blue-R.png,stimuli/blue-R.png,mB-M,m0,stimuli/m0_w0_O-O-X.png,stimuli/m0_wW-R_O-O-X.png,stimuli/m0_none_O-O-X.png,stimuli/mW-R_none_O-O-X.png,stimuli/mB-M_none_O-O-B.png,stimuli/mB-M_none_B-O-X.png,stimuli/mB-M_none_X-O-X.png,stimuli/mW-L_none_X-O-X.png,stimuli/m0_none_X-O-X.png,stimuli/m0_wW-L_X-O-X.png,0,19,19,13,,,,,,,,,195.91878882911988,202.5683418548433,203.33114107546862,203.33114107546862,203.33114107546862,204.2190295594046,204.2190295594046,right,0.0009033083915710449,196.95936554227956,S2,K-A,2023-01-25_13h33.38.143,knowing_that_K_ONLY,2022.2.5,60.00512045264978,
Does Anna know that the book is here?,Does Anna think that the book is here?,Is the book here?,early,36,per_8,per_K,1,0,1,switch,O-X-B,B-X-O,none,B-X-X,L,M,L,stimuli/blue-L.png,stimuli/blue-M.png,stimuli/blue-L.png,mB-L,m0,stimuli/m0_w0_O-X-B.png,stimuli/m0_wW-R_O-X-B.png,stimuli/m0_none_O-X-B.png,stimuli/mW-R_none_O-X-B.png,stimuli/mB-L_none_O-X-B.png,stimuli/mB-L_none_B-X-O.png,stimuli/mB-L_none_B-X-X.png,stimuli/mW-L_none_B-X-X.png,stimuli/m0_none_B-X-X.png,stimuli/m0_wW-L_B-X-X.png,0,20,20,7,,,,,,,,,204.2359509326052,210.88556843972765,211.62398826889694,211.62398826889694,211.62398826889694,212.53578616841696,212.53578616841696,left,0.05255188071168959,205.29333160526585,S2,K-A,2023-01-25_13h33.38.143,knowing_that_K_ONLY,2022.2.5,60.00512045264978,
Does Anna know that the book is here?,Does Anna think that the book is here?,Is the book here?,late,32,per_4,per_K,1,0,1,no,O-X-B,O-O-B,none,O-X-B,R,L,R,stimuli/blue-R.png,stimuli/blue-L.png,stimuli/blue-R.png,mB-M,m0,stimuli/m0_w0_O-X-B.png,stimuli/mW-R_w0_O-X-B.png,stimuli/mB-M_w0_O-X-B.png,stimuli/mB-M_w0_O-O-B.png,stimuli/mB-M_w0_O-X-B.png,stimuli/mW-L_w0_O-X-B.png,stimuli/m0_wW-R_O-X-B.png,stimuli/m0_none_O-X-B.png,stimuli/m0_none_O-X-B.png,stimuli/m0_wW-L_O-X-B.png,0,21,21,3,,,,,,,,,212.61924391961657,219.26730521349236,220.00660340010654,220.00660340010654,220.00660340010654,220.9190759473713,220.9190759473713,left,0.12577731325291097,213.68190821062308,S2,K-A,2023-01-25_13h33.38.143,knowing_that_K_ONLY,2022.2.5,60.00512045264978,
Does Anna know that the book is here?,Does Anna think that the book is here?,Is the book here?,early,37,per_9,per_K,1,0,1,switch,X-O-B,X-B-O,none,X-B-X,M,R,M,stimuli/blue-M.png,stimuli/blue-R.png,stimuli/blue-M.png,mB-R,m0,stimuli/m0_w0_X-O-B.png,stimuli/m0_wW-R_X-O-B.png,stimuli/m0_none_X-O-B.png,stimuli/mW-R_none_X-O-B.png,stimuli/mB-R_none_X-O-B.png,stimuli/mB-R_none_X-B-O.png,stimuli/mB-R_none_X-B-X.png,stimuli/mW-L_none_X-B-X.png,stimuli/m0_none_X-B-X.png,stimuli/m0_wW-L_X-B-X.png,0,22,22,8,,,,,,,,,221.06884776055813,227.7192858805647,228.45801368029788,228.45801368029788,228.45801368029788,229.36872309667524,229.36872309667524,left,0.13253373617772013,222.12051076896023,S2,K-A,2023-01-25_13h33.38.143,knowing_that_K_ONLY,2022.2.5,60.00512045264978,
Does Anna know that the book is here?,Does Anna think that the book is here?,Is the book here?,late,39,per_11,per_K,1,1,1,show,X-X-O,X-B-O,none,X-B-O,M,M,M,stimuli/blue-M.png,stimuli/blue-M.png,stimuli/blue-M.png,mB-M,m0,stimuli/m0_w0_X-X-O.png,stimuli/mW-R_w0_X-X-O.png,stimuli/mB-M_w0_X-X-O.png,stimuli/mB-M_w0_X-B-O.png,stimuli/mB-M_w0_X-B-O.png,stimuli/mW-L_w0_X-B-O.png,stimuli/m0_wW-R_X-B-O.png,stimuli/m0_none_X-B-O.png,stimuli/m0_none_X-B-O.png,stimuli/m0_wW-L_X-B-O.png,0,23,23,10,,,,,,,,,229.51884105580393,236.17060216562822,236.90764543099795,236.90764543099795,236.90764543099795,237.81876643712167,237.81876643712167,left,0.22657412255648524,230.56626369582955,S2,K-A,2023-01-25_13h33.38.143,knowing_that_K_ONLY,2022.2.5,60.00512045264978,
Does Anna know that the book is here?,Does Anna think that the book is here?,Is the book here?,early,44,mem_4,mem_K,0,1,0,switch,O-X-O,O-B-O,O-X-B,O-X-X,R,M,M,stimuli/blue-R.png,stimuli/blue-M.png,stimuli/blue-M.png,mB-L,m0,stimuli/m0_w0_O-X-O.png,stimuli/m0_wW-R_O-X-O.png,stimuli/m0_none_O-X-O.png,stimuli/mW-R_none_O-X-O.png,stimuli/mB-L_none_O-B-O.png,stimuli/mB-L_none_O-X-B.png,stimuli/mB-L_none_O-X-X.png,stimuli/mW-L_none_O-X-X.png,stimuli/m0_none_O-X-X.png,stimuli/m0_wW-L_O-X-X.png,1,0,24,15,,,,,,,,,238.06893694365863,244.71820349269547,245.45775735902134,245.45775735902134,245.45775735902134,246.36903299193364,246.36903299193364,right,0.035524963517673314,239.12004079320468,S2,K-A,2023-01-25_13h33.38.143,knowing_that_K_ONLY,2022.2.5,60.00512045264978,
Does Anna know that the book is here?,Does Anna think that the book is here?,Is the book here?,early,36,per_8,per_K,1,0,1,switch,O-X-B,B-X-O,none,B-X-X,L,M,L,stimuli/blue-L.png,stimuli/blue-M.png,stimuli/blue-L.png,mB-L,m0,stimuli/m0_w0_O-X-B.png,stimuli/m0_wW-R_O-X-B.png,stimuli/m0_none_O-X-B.png,stimuli/mW-R_none_O-X-B.png,stimuli/mB-L_none_O-X-B.png,stimuli/mB-L_none_B-X-O.png,stimuli/mB-L_none_B-X-X.png,stimuli/mW-L_none_B-X-X.png,stimuli/m0_none_B-X-X.png,stimuli/m0_wW-L_B-X-X.png,1,1,25,7,,,,,,,,,246.43547762045637,253.0873532568803,253.8246358409524,253.8246358409524,253.8246358409524,254.73527211439796,254.73527211439796,left,0.49268851696979254,247.4737570664147,S2,K-A,2023-01-25_13h33.38.143,knowing_that_K_ONLY,2022.2.5,60.00512045264978,
Does Anna know that the book is here?,Does Anna think that the book is here?,Is the book here?,early,46,mem_6,mem_K,0,1,0,switch,O-X-O,O-B-O,O-X-B,O-X-X,R,M,M,stimuli/blue-R.png,stimuli/blue-M.png,stimuli/blue-M.png,mB-L,m0,stimuli/m0_w0_O-X-O.png,stimuli/m0_wW-R_O-X-O.png,stimuli/m0_none_O-X-O.png,stimuli/mW-R_none_O-X-O.png,stimuli/mB-L_none_O-B-O.png,stimuli/mB-L_none_O-X-B.png,stimuli/mB-L_none_O-X-X.png,stimuli/mW-L_none_O-X-X.png,stimuli/m0_none_O-X-X.png,stimuli/m0_wW-L_O-X-X.png,1,2,26,17,,,,,,,,,255.25220503646415,261.90461545076687,262.6371626680484,262.6371626680484,262.6371626680484,263.55230846314225,263.55230846314225,right,0.3155192018020898,256.28774354525376,S2,K-A,2023-01-25_13h33.38.143,knowing_that_K_ONLY,2022.2.5,60.00512045264978,
Does Anna know that the book is here?,Does Anna think that the book is here?,Is the book here?,early,47,mem_7,mem_K,0,1,0,switch,X-O-O,B-O-O,X-O-B,X-O-X,R,L,L,stimuli/blue-R.png,stimuli/blue-L.png,stimuli/blue-L.png,mB-M,m0,stimuli/m0_w0_X-O-O.png,stimuli/m0_wW-R_X-O-O.png,stimuli/m0_none_X-O-O.png,stimuli/mW-R_none_X-O-O.png,stimuli/mB-M_none_B-O-O.png,stimuli/mB-M_none_X-O-B.png,stimuli/mB-M_none_X-O-X.png,stimuli/mW-L_none_X-O-X.png,stimuli/m0_none_X-O-X.png,stimuli/m0_wW-L_X-O-X.png,1,3,27,18,,,,,,,,,263.8855078079505,270.55866548698395,271.27428780228365,271.27428780228365,271.27428780228365,272.18587333045434,272.18587333045434,right,0.07424326741602272,264.93468652130105,S2,K-A,2023-01-25_13h33.38.143,knowing_that_K_ONLY,2022.2.5,60.00512045264978,
Does Anna know that the book is here?,Does Anna think that the book is here?,Is the book here?,early,49,mem_9,mem_K,0,1,0,switch,X-O-O,B-O-O,X-B-O,X-X-O,M,L,L,stimuli/blue-M.png,stimuli/blue-L.png,stimuli/blue-L.png,mB-R,m0,stimuli/m0_w0_X-O-O.png,stimuli/m0_wW-R_X-O-O.png,stimuli/m0_none_X-O-O.png,stimuli/mW-R_none_X-O-O.png,stimuli/mB-R_none_B-O-O.png,stimuli/mB-R_none_X-B-O.png,stimuli/mB-R_none_X-X-O.png,stimuli/mW-L_none_X-X-O.png,stimuli/m0_none_X-X-O.png,stimuli/m0_wW-L_X-X-O.png,1,4,28,20,,,,,,,,,272.2860413668677,278.9315404105,279.6757285906933,279.6757285906933,279.6757285906933,280.58570080285426,280.58570080285426,right,0.25163842749316245,273.3376440644497,S2,K-A,2023-01-25_13h33.38.143,knowing_that_K_ONLY,2022.2.5,60.00512045264978,
Does Anna know that the book is here?,Does Anna think that the book is here?,Is the book here?,late,38,per_10,per_K,1,1,1,show,X-X-X,X-O-X,none,X-O-B,R,R,R,stimuli/blue-R.png,stimuli/blue-R.png,stimuli/blue-R.png,mB-R,m0,stimuli/m0_w0_X-X-X.png,stimuli/mW-R_w0_X-X-X.png,stimuli/mB-R_w0_X-X-X.png,stimuli/mB-R_w0_X-O-X.png,stimuli/mB-R_w0_X-O-B.png,stimuli/mW-L_w0_X-O-B.png,stimuli/m0_wW-R_X-O-B.png,stimuli/m0_none_X-O-B.png,stimuli/m0_none_X-O-B.png,stimuli/m0_wW-L_X-O-B.png,1,5,29,9,,,,,,,,,280.86921873665415,287.5421643650625,288.2597092501819,288.2597092501819,288.2597092501819,289.16932601307053,289.16932601307053,left,0.3708974248729646,281.92388413636945,S2,K-A,2023-01-25_13h33.38.143,knowing_that_K_ONLY,2022.2.5,60.00512045264978,
Does Anna know that the book is here?,Does Anna think that the book is here?,Is the book here?,early,43,mem_3,mem_K,0,1,0,switch,O-O-X,O-O-B,B-O-X,X-O-X,L,R,R,stimuli/blue-L.png,stimuli/blue-R.png,stimuli/blue-R.png,mB-M,m0,stimuli/m0_w0_O-O-X.png,stimuli/m0_wW-R_O-O-X.png,stimuli/m0_none_O-O-X.png,stimuli/mW-R_none_O-O-X.png,stimuli/mB-M_none_O-O-B.png,stimuli/mB-M_none_B-O-X.png,stimuli/mB-M_none_X-O-X.png,stimuli/mW-L_none_X-O-X.png,stimuli/m0_none_X-O-X.png,stimuli/m0_wW-L_X-O-X.png,1,6,30,14,,,,,,,,,289.56860074261203,296.2406664096052,296.9571119042812,296.9571119042812,296.9571119042812,297.8689271270996,297.8689271270996,left,0.03965401335153729,290.62823216605466,S2,K-A,2023-01-25_13h33.38.143,knowing_that_K_ONLY,2022.2.5,60.00512045264978,
Does Anna know that the book is here?,Does Anna think that the book is here?,Is the book here?,late,52,mem_12,mem_K,1,1,1,show,X-O-O,B-O-O,X-O-B,X-O-X,R,R,R,stimuli/blue-R.png,stimuli/blue-R.png,stimuli/blue-R.png,mB-M,m0,stimuli/m0_w0_X-O-O.png,stimuli/mW-R_w0_X-O-O.png,stimuli/mB-M_w0_B-O-O.png,stimuli/mB-M_w0_X-O-B.png,stimuli/mB-M_w0_X-O-X.png,stimuli/mW-L_w0_X-O-X.png,stimuli/m0_wW-R_X-O-X.png,stimuli/m0_none_X-O-X.png,stimuli/m0_none_X-O-X.png,stimuli/m0_wW-L_X-O-X.png,1,7,31,23,,,,,,,,,297.9353951741941,304.5851766114356,305.322349801776,305.322349801776,305.322349801776,306.23593585484196,306.23593585484196,left,0.26556831679772586,298.97387736744713,S2,K-A,2023-01-25_13h33.38.143,knowing_that_K_ONLY,2022.2.5,60.00512045264978,
Does Anna know that the book is here?,Does Anna think that the book is here?,Is the book here?,late,40,per_12,per_K,1,1,1,show,O-X-X,O-B-X,none,O-B-X,M,M,M,stimuli/blue-M.png,stimuli/blue-M.png,stimuli/blue-M.png,mB-M,m0,stimuli/m0_w0_O-X-X.png,stimuli/mW-R_w0_O-X-X.png,stimuli/mB-M_w0_O-X-X.png,stimuli/mB-M_w0_O-B-X.png,stimuli/mB-M_w0_O-B-X.png,stimuli/mW-L_w0_O-B-X.png,stimuli/m0_wW-R_O-B-X.png,stimuli/m0_none_O-B-X.png,stimuli/m0_none_O-B-X.png,stimuli/m0_wW-L_O-B-X.png,1,8,32,11,,,,,,,,,306.51933092135005,313.1712055952521,313.9280423793243,313.9280423793243,313.9280423793243,314.81914177606814,314.81914177606814,left,0.2506307866424322,307.5655646669911,S2,K-A,2023-01-25_13h33.38.143,knowing_that_K_ONLY,2022.2.5,60.00512045264978,
Does Anna know that the book is here?,Does Anna think that the book is here?,Is the book here?,early,41,mem_1,mem_K,0,1,0,switch,O-O-X,O-O-B,O-B-X,O-X-X,M,R,R,stimuli/blue-M.png,stimuli/blue-R.png,stimuli/blue-R.png,mB-L,m0,stimuli/m0_w0_O-O-X.png,stimuli/m0_wW-R_O-O-X.png,stimuli/m0_none_O-O-X.png,stimuli/mW-R_none_O-O-X.png,stimuli/mB-L_none_O-O-B.png,stimuli/mB-L_none_O-B-X.png,stimuli/mB-L_none_O-X-X.png,stimuli/mW-L_none_O-X-X.png,stimuli/m0_none_O-X-X.png,stimuli/m0_wW-L_O-X-X.png,1,9,33,12,,,,,,,,,315.1023716292111,321.7522178685758,322.49112948810216,322.49112948810216,322.49112948810216,323.4026556678582,323.4026556678582,right,0.03409129672218114,316.1533500449732,S2,K-A,2023-01-25_13h33.38.143,knowing_that_K_ONLY,2022.2.5,60.00512045264978,
Does Anna know that the book is here?,Does Anna think that the book is here?,Is the book here?,early,37,per_9,per_K,1,0,1,switch,X-O-B,X-B-O,none,X-B-X,M,R,M,stimuli/blue-M.png,stimuli/blue-R.png,stimuli/blue-M.png,mB-R,m0,stimuli/m0_w0_X-O-B.png,stimuli/m0_wW-R_X-O-B.png,stimuli/m0_none_X-O-B.png,stimuli/mW-R_none_X-O-B.png,stimuli/mB-R_none_X-O-B.png,stimuli/mB-R_none_X-B-O.png,stimuli/mB-R_none_X-B-X.png,stimuli/mW-L_none_X-B-X.png,stimuli/m0_none_X-B-X.png,stimuli/m0_wW-L_X-B-X.png,1,10,34,8,,,,,,,,,323.4692725673085,330.1207722231047,330.8588962723734,330.8588962723734,330.8588962723734,331.7689005646389,331.7689005646389,left,0.34802291833329946,324.52395047829486,S2,K-A,2023-01-25_13h33.38.143,knowing_that_K_ONLY,2022.2.5,60.00512045264978,
Does Anna know that the book is here?,Does Anna think that the book is here?,Is the book here?,early,42,mem_2,mem_K,0,1,0,switch,O-O-X,O-O-B,B-O-X,X-O-X,L,R,R,stimuli/blue-L.png,stimuli/blue-R.png,stimuli/blue-R.png,mB-M,m0,stimuli/m0_w0_O-O-X.png,stimuli/m0_wW-R_O-O-X.png,stimuli/m0_none_O-O-X.png,stimuli/mW-R_none_O-O-X.png,stimuli/mB-M_none_O-O-B.png,stimuli/mB-M_none_B-O-X.png,stimuli/mB-M_none_X-O-X.png,stimuli/mW-L_none_X-O-X.png,stimuli/m0_none_X-O-X.png,stimuli/m0_wW-L_X-O-X.png,1,11,35,13,,,,,,,,,332.13574536226224,338.78689085203223,339.52519422990736,339.52519422990736,339.52519422990736,340.4354606178822,340.4354606178822,right,0.29709711426403373,333.17429652810097,S2,K-A,2023-01-25_13h33.38.143,knowing_that_K_ONLY,2022.2.5,60.00512045264978,
Does Anna know that the book is here?,Does Anna think that the book is here?,Is the book here?,early,31,per_3,per_K,1,0,1,no,O-B-X,O-B-O,none,O-B-X,M,R,M,stimuli/blue-M.png,stimuli/blue-R.png,stimuli/blue-M.png,mB-R,m0,stimuli/m0_w0_O-B-X.png,stimuli/m0_wW-R_O-B-X.png,stimuli/m0_none_O-B-X.png,stimuli/mW-R_none_O-B-X.png,stimuli/mB-R_none_O-B-X.png,stimuli/mB-R_none_O-B-O.png,stimuli/mB-R_none_O-B-X.png,stimuli/mW-L_none_O-B-X.png,stimuli/m0_none_O-B-X.png,stimuli/m0_wW-L_O-B-X.png,1,12,36,2,,,,,,,,,340.7521809762111,347.4037826472195,348.14174437033944,348.14174437033944,348.14174437033944,349.0527623988455,349.0527623988455,left,0.4010021798312664,341.7918498181971,S2,K-A,2023-01-25_13h33.38.143,knowing_that_K_ONLY,2022.2.5,60.00512045264978,
Does Anna know that the book is here?,Does Anna think that the book is here?,Is the book here?,late,32,per_4,per_K,1,0,1,no,O-X-B,O-O-B,none,O-X-B,R,L,R,stimuli/blue-R.png,stimuli/blue-L.png,stimuli/blue-R.png,mB-M,m0,stimuli/m0_w0_O-X-B.png,stimuli/mW-R_w0_O-X-B.png,stimuli/mB-M_w0_O-X-B.png,stimuli/mB-M_w0_O-O-B.png,stimuli/mB-M_w0_O-X-B.png,stimuli/mW-L_w0_O-X-B.png,stimuli/m0_wW-R_O-X-B.png,stimuli/m0_none_O-X-B.png,stimuli/m0_none_O-X-B.png,stimuli/m0_wW-L_O-X-B.png,1,13,37,3,,,,,,,,,349.4860797348665,356.13784629828297,356.87500890227966,356.87500890227966,356.87500890227966,357.7861549309455,357.7861549309455,left,0.37841928272973746,350.54077047796454,S2,K-A,2023-01-25_13h33.38.143,knowing_that_K_ONLY,2022.2.5,60.00512045264978,
Does Anna know that the book is here?,Does Anna think that the book is here?,Is the book here?,late,34,per_6,per_K,1,0,1,no,X-B-X,O-B-X,none,X-B-X,M,R,M,stimuli/blue-M.png,stimuli/blue-R.png,stimuli/blue-M.png,mB-L,m0,stimuli/m0_w0_X-B-X.png,stimuli/mW-R_w0_X-B-X.png,stimuli/mB-L_w0_X-B-X.png,stimuli/mB-L_w0_O-B-X.png,stimuli/mB-L_w0_X-B-X.png,stimuli/mW-L_w0_X-B-X.png,stimuli/m0_wW-R_X-B-X.png,stimuli/m0_none_X-B-X.png,stimuli/m0_none_X-B-X.png,stimuli/m0_wW-L_X-B-X.png,1,14,38,5,,,,,,,,,358.1858595359372,364.85823060700204,365.59531301027164,365.59531301027164,365.59531301027164,366.4857801052276,366.4857801052276,left,0.3983680699020624,359.2254058312392,S2,K-A,2023-01-25_13h33.38.143,knowing_that_K_ONLY,2022.2.5,60.00512045264978,
Does Anna know that the book is here?,Does Anna think that the book is here?,Is the book here?,early,45,mem_5,mem_K,0,1,0,switch,O-X-O,O-B-O,B-X-O,X-X-O,L,M,M,stimuli/blue-L.png,stimuli/blue-M.png,stimuli/blue-M.png,mB-R,m0,stimuli/m0_w0_O-X-O.png,stimuli/m0_wW-R_O-X-O.png,stimuli/m0_none_O-X-O.png,stimuli/mW-R_none_O-X-O.png,stimuli/mB-R_none_O-B-O.png,stimuli/mB-R_none_B-X-O.png,stimuli/mB-R_none_X-X-O.png,stimuli/mW-L_none_X-X-O.png,stimuli/m0_none_X-X-O.png,stimuli/m0_wW-L_X-X-O.png,1,15,39,16,,,,,,,,,366.9022825744469,373.5531310009537,374.2908315907698,374.2908315907698,374.2908315907698,375.20248641236685,375.20248641236685,right,0.04186466382816434,367.95600032329094,S2,K-A,2023-01-25_13h33.38.143,knowing_that_K_ONLY,2022.2.5,60.00512045264978,
Does Anna know that the book is here?,Does Anna think that the book is here?,Is the book here?,early,48,mem_8,mem_K,0,1,0,switch,X-O-O,B-O-O,X-B-O,X-X-O,M,L,L,stimuli/blue-M.png,stimuli/blue-L.png,stimuli/blue-L.png,mB-R,m0,stimuli/m0_w0_X-O-O.png,stimuli/m0_wW-R_X-O-O.png,stimuli/m0_none_X-O-O.png,stimuli/mW-R_none_X-O-O.png,stimuli/mB-R_none_B-O-O.png,stimuli/mB-R_none_X-B-O.png,stimuli/mB-R_none_X-X-O.png,stimuli/mW-L_none_X-X-O.png,stimuli/m0_none_X-X-O.png,stimuli/m0_wW-L_X-X-O.png,1,16,40,19,,,,,,,,,375.2693403849844,381.92083779512905,382.65912000008393,382.65912000008393,382.65912000008393,383.56920192658436,383.56920192658436,right,0.2429584723431617,376.32384570420254,S2,K-A,2023-01-25_13h33.38.143,knowing_that_K_ONLY,2022.2.5,60.00512045264978,
Does Anna know that the book is here?,Does Anna think that the book is here?,Is the book here?,early,35,per_7,per_K,1,0,1,switch,B-X-O,O-X-B,none,X-X-B,R,L,R,stimuli/blue-R.png,stimuli/blue-L.png,stimuli/blue-R.png,mB-R,m0,stimuli/m0_w0_B-X-O.png,stimuli/m0_wW-R_B-X-O.png,stimuli/m0_none_B-X-O.png,stimuli/mW-R_none_B-X-O.png,stimuli/mB-R_none_B-X-O.png,stimuli/mB-R_none_O-X-B.png,stimuli/mB-R_none_X-X-B.png,stimuli/mW-L_none_X-X-B.png,stimuli/m0_none_X-X-B.png,stimuli/m0_wW-L_X-X-B.png,1,17,41,6,,,,,,,,,383.8359486227855,390.4864906829316,391.2242916839896,391.2242916839896,391.2242916839896,392.13597762340214,392.13597762340214,left,0.19731083291117102,384.87507915799506,S2,K-A,2023-01-25_13h33.38.143,knowing_that_K_ONLY,2022.2.5,60.00512045264978,
Does Anna know that the book is here?,Does Anna think that the book is here?,Is the book here?,late,39,per_11,per_K,1,1,1,show,X-X-O,X-B-O,none,X-B-O,M,M,M,stimuli/blue-M.png,stimuli/blue-M.png,stimuli/blue-M.png,mB-M,m0,stimuli/m0_w0_X-X-O.png,stimuli/mW-R_w0_X-X-O.png,stimuli/mB-M_w0_X-X-O.png,stimuli/mB-M_w0_X-B-O.png,stimuli/mB-M_w0_X-B-O.png,stimuli/mW-L_w0_X-B-O.png,stimuli/m0_wW-R_X-B-O.png,stimuli/m0_none_X-B-O.png,stimuli/m0_none_X-B-O.png,stimuli/m0_wW-L_X-B-O.png,1,18,42,10,,,,,,,,,392.3526188075775,399.02426871447824,399.7432411710033,399.7432411710033,399.7432411710033,400.65234368736856,400.65234368736856,left,0.1846118631074205,393.4142443399178,S2,K-A,2023-01-25_13h33.38.143,knowing_that_K_ONLY,2022.2.5,60.00512045264978,
Does Anna know that the book is here?,Does Anna think that the book is here?,Is the book here?,early,30,per_2,per_K,1,0,1,no,X-X-B,O-X-B,none,X-X-B,R,L,R,stimuli/blue-R.png,stimuli/blue-L.png,stimuli/blue-R.png,mB-L,m0,stimuli/m0_w0_X-X-B.png,stimuli/m0_wW-R_X-X-B.png,stimuli/m0_none_X-X-B.png,stimuli/mW-R_none_X-X-B.png,stimuli/mB-L_none_X-X-B.png,stimuli/mB-L_none_O-X-B.png,stimuli/mB-L_none_X-X-B.png,stimuli/mW-L_none_X-X-B.png,stimuli/m0_none_X-X-B.png,stimuli/m0_wW-L_X-X-B.png,1,19,43,1,,,,,,,,,400.8690031573642,407.5209089491982,408.2596707538469,408.2596707538469,408.2596707538469,409.16943861474283,409.16943861474283,left,0.23475394654087722,401.9197990364628,S2,K-A,2023-01-25_13h33.38.143,knowing_that_K_ONLY,2022.2.5,60.00512045264978,
Does Anna know that the book is here?,Does Anna think that the book is here?,Is the book here?,late,33,per_5,per_K,1,0,1,no,X-B-O,O-B-O,none,X-B-O,M,R,M,stimuli/blue-M.png,stimuli/blue-R.png,stimuli/blue-M.png,mB-L,m0,stimuli/m0_w0_X-B-O.png,stimuli/mW-R_w0_X-B-O.png,stimuli/mB-L_w0_X-B-O.png,stimuli/mB-L_w0_O-B-O.png,stimuli/mB-L_w0_X-B-O.png,stimuli/mW-L_w0_X-B-O.png,stimuli/m0_wW-R_X-B-O.png,stimuli/m0_none_X-B-O.png,stimuli/m0_none_X-B-O.png,stimuli/m0_wW-L_X-B-O.png,1,20,44,4,,,,,,,,,409.43607399240136,416.08726599859074,416.82319094613194,416.82319094613194,416.82319094613194,417.735916285892,417.735916285892,left,0.12558900204021484,410.4869173503248,S2,K-A,2023-01-25_13h33.38.143,knowing_that_K_ONLY,2022.2.5,60.00512045264978,
Does Anna know that the book is here?,Does Anna think that the book is here?,Is the book here?,early,29,per_1,per_K,1,0,1,no,B-X-X,B-O-X,none,B-X-X,L,M,L,stimuli/blue-L.png,stimuli/blue-M.png,stimuli/blue-L.png,mB-M,m0,stimuli/m0_w0_B-X-X.png,stimuli/m0_wW-R_B-X-X.png,stimuli/m0_none_B-X-X.png,stimuli/mW-R_none_B-X-X.png,stimuli/mB-M_none_B-X-X.png,stimuli/mB-M_none_B-O-X.png,stimuli/mB-M_none_B-X-X.png,stimuli/mW-L_none_B-X-X.png,stimuli/m0_none_B-X-X.png,stimuli/m0_wW-L_B-X-X.png,1,21,45,0,,,,,,,,,417.8860076183919,424.53908369806595,425.2762530387845,425.2762530387845,425.2762530387845,426.18572896928526,426.18572896928526,left,0.026377278147265315,418.9320251431782,S2,K-A,2023-01-25_13h33.38.143,knowing_that_K_ONLY,2022.2.5,60.00512045264978,
Does Anna know that the book is here?,Does Anna think that the book is here?,Is the book here?,late,51,mem_11,mem_K,1,1,1,show,O-X-O,O-B-O,O-X-B,O-X-X,R,R,R,stimuli/blue-R.png,stimuli/blue-R.png,stimuli/blue-R.png,mB-L,m0,stimuli/m0_w0_O-X-O.png,stimuli/mW-R_w0_O-X-O.png,stimuli/mB-L_w0_O-B-O.png,stimuli/mB-L_w0_O-X-B.png,stimuli/mB-L_w0_O-X-X.png,stimuli/mW-L_w0_O-X-X.png,stimuli/m0_wW-R_O-X-X.png,stimuli/m0_none_O-X-X.png,stimuli/m0_none_O-X-X.png,stimuli/m0_wW-L_O-X-X.png,1,22,46,22,,,,,,,,,426.2358412181493,432.88696457247715,433.6242699335562,433.6242699335562,433.6242699335562,434.5359574769391,434.5359574769391,left,0.04415615659672767,427.291126729222,S2,K-A,2023-01-25_13h33.38.143,knowing_that_K_ONLY,2022.2.5,60.00512045264978,
Does Anna know that the book is here?,Does Anna think that the book is here?,Is the book here?,late,50,mem_10,mem_K,1,1,1,show,O-O-X,O-O-B,O-B-X,O-X-X,M,M,M,stimuli/blue-M.png,stimuli/blue-M.png,stimuli/blue-M.png,mB-L,m0,stimuli/m0_w0_O-O-X.png,stimuli/mW-R_w0_O-O-X.png,stimuli/mB-L_w0_O-O-B.png,stimuli/mB-L_w0_O-B-X.png,stimuli/mB-L_w0_O-X-X.png,stimuli/mW-L_w0_O-X-X.png,stimuli/m0_wW-R_O-X-X.png,stimuli/m0_none_O-X-X.png,stimuli/m0_none_O-X-X.png,stimuli/m0_wW-L_O-X-X.png,1,23,47,21,,,,,,,,,434.60286887316033,441.2539935107343,441.99076954764314,441.99076954764314,441.99076954764314,442.9028029162437,442.9028029162437,left,0.4537588042439893,435.6425402815221,S2,K-A,2023-01-25_13h33.38.143,knowing_that_K_ONLY,2022.2.5,60.00512045264978,
Does Anna know that the book is here?,Does Anna think that the book is here?,Is the book here?,early,41,mem_1,mem_K,0,1,0,switch,O-O-X,O-O-B,O-B-X,O-X-X,M,R,R,stimuli/blue-M.png,stimuli/blue-R.png,stimuli/blue-R.png,mB-L,m0,stimuli/m0_w0_O-O-X.png,stimuli/m0_wW-R_O-O-X.png,stimuli/m0_none_O-O-X.png,stimuli/mW-R_none_O-O-X.png,stimuli/mB-L_none_O-O-B.png,stimuli/mB-L_none_O-B-X.png,stimuli/mB-L_none_O-X-X.png,stimuli/mW-L_none_O-X-X.png,stimuli/m0_none_O-X-X.png,stimuli/m0_wW-L_O-X-X.png,2,0,48,12,,,,,,,,,443.386111558415,450.0357900180388,450.79589545936324,450.79589545936324,450.79589545936324,451.6861479374347,451.6861479374347,right,0.694975710939616,444.43793176009785,S2,K-A,2023-01-25_13h33.38.143,knowing_that_K_ONLY,2022.2.5,60.00512045264978,
Does Anna know that the book is here?,Does Anna think that the book is here?,Is the book here?,early,43,mem_3,mem_K,0,1,0,switch,O-O-X,O-O-B,B-O-X,X-O-X,L,R,R,stimuli/blue-L.png,stimuli/blue-R.png,stimuli/blue-R.png,mB-M,m0,stimuli/m0_w0_O-O-X.png,stimuli/m0_wW-R_O-O-X.png,stimuli/m0_none_O-O-X.png,stimuli/mW-R_none_O-O-X.png,stimuli/mB-M_none_O-O-B.png,stimuli/mB-M_none_B-O-X.png,stimuli/mB-M_none_X-O-X.png,stimuli/mW-L_none_X-O-X.png,stimuli/m0_none_X-O-X.png,stimuli/m0_wW-L_X-O-X.png,2,1,49,14,,,,,,,,,452.402854244574,459.0545232841978,459.7911193507025,459.7911193507025,459.7911193507025,460.7029910348356,460.7029910348356,right,0.2695741783827543,453.4570214379346,S2,K-A,2023-01-25_13h33.38.143,knowing_that_K_ONLY,2022.2.5,60.00512045264978,
Does Anna know that the book is here?,Does Anna think that the book is here?,Is the book here?,late,39,per_11,per_K,1,1,1,show,X-X-O,X-B-O,none,X-B-O,M,M,M,stimuli/blue-M.png,stimuli/blue-M.png,stimuli/blue-M.png,mB-M,m0,stimuli/m0_w0_X-X-O.png,stimuli/mW-R_w0_X-X-O.png,stimuli/mB-M_w0_X-X-O.png,stimuli/mB-M_w0_X-B-O.png,stimuli/mB-M_w0_X-B-O.png,stimuli/mW-L_w0_X-B-O.png,stimuli/m0_wW-R_X-B-O.png,stimuli/m0_none_X-B-O.png,stimuli/m0_none_X-B-O.png,stimuli/m0_wW-L_X-B-O.png,2,2,50,10,,,,,,,,,461.0027085361071,467.6503271223046,468.4129717161413,468.4129717161413,468.4129717161413,469.30282864451874,469.30282864451874,left,0.5816464283270761,462.05689401517157,S2,K-A,2023-01-25_13h33.38.143,knowing_that_K_ONLY,2022.2.5,60.00512045264978,
Does Anna know that the book is here?,Does Anna think that the book is here?,Is the book here?,early,35,per_7,per_K,1,0,1,switch,B-X-O,O-X-B,none,X-X-B,R,L,R,stimuli/blue-R.png,stimuli/blue-L.png,stimuli/blue-R.png,mB-R,m0,stimuli/m0_w0_B-X-O.png,stimuli/m0_wW-R_B-X-O.png,stimuli/m0_none_B-X-O.png,stimuli/mW-R_none_B-X-O.png,stimuli/mB-R_none_B-X-O.png,stimuli/mB-R_none_O-X-B.png,stimuli/mB-R_none_X-X-B.png,stimuli/mW-L_none_X-X-B.png,stimuli/m0_none_X-X-B.png,stimuli/m0_wW-L_X-X-B.png,2,3,51,6,,,,,,,,,469.90266400866676,476.55426567967515,477.29367678880226,477.29367678880226,477.29367678880226,478.20286624261644,478.20286624261644,left,0.14667535515036434,470.9503875615774,S2,K-A,2023-01-25_13h33.38.143,knowing_that_K_ONLY,2022.2.5,60.00512045264978,
Does Anna know that the book is here?,Does Anna think that the book is here?,Is the book here?,late,40,per_12,per_K,1,1,1,show,O-X-X,O-B-X,none,O-B-X,M,M,M,stimuli/blue-M.png,stimuli/blue-M.png,stimuli/blue-M.png,mB-M,m0,stimuli/m0_w0_O-X-X.png,stimuli/mW-R_w0_O-X-X.png,stimuli/mB-M_w0_O-X-X.png,stimuli/mB-M_w0_O-B-X.png,stimuli/mB-M_w0_O-B-X.png,stimuli/mW-L_w0_O-B-X.png,stimuli/m0_wW-R_O-B-X.png,stimuli/m0_none_O-B-X.png,stimuli/m0_none_O-B-X.png,stimuli/m0_wW-L_O-B-X.png,2,4,52,11,,,,,,,,,478.36946575460024,485.02260952361394,485.7585745714605,485.7585745714605,485.7585745714605,486.6691344939172,486.6691344939172,left,0.024438347318209708,479.43088180280756,S2,K-A,2023-01-25_13h33.38.143,knowing_that_K_ONLY,2022.2.5,60.00512045264978,
Does Anna know that the book is here?,Does Anna think that the book is here?,Is the book here?,early,37,per_9,per_K,1,0,1,switch,X-O-B,X-B-O,none,X-B-X,M,R,M,stimuli/blue-M.png,stimuli/blue-R.png,stimuli/blue-M.png,mB-R,m0,stimuli/m0_w0_X-O-B.png,stimuli/m0_wW-R_X-O-B.png,stimuli/m0_none_X-O-B.png,stimuli/mW-R_none_X-O-B.png,stimuli/mB-R_none_X-O-B.png,stimuli/mB-R_none_X-B-O.png,stimuli/mB-R_none_X-B-X.png,stimuli/mW-L_none_X-B-X.png,stimuli/m0_none_X-B-X.png,stimuli/m0_wW-L_X-B-X.png,2,5,53,8,,,,,,,,,486.7192329481477,493.3698513592826,494.11047125258483,494.11047125258483,494.11047125258483,495.0191522343084,495.0191522343084,left,0.01035383134149015,487.7577324646991,S2,K-A,2023-01-25_13h33.38.143,knowing_that_K_ONLY,2022.2.5,60.00512045264978,
Does Anna know that the book is here?,Does Anna think that the book is here?,Is the book here?,early,42,mem_2,mem_K,0,1,0,switch,O-O-X,O-O-B,B-O-X,X-O-X,L,R,R,stimuli/blue-L.png,stimuli/blue-R.png,stimuli/blue-R.png,mB-M,m0,stimuli/m0_w0_O-O-X.png,stimuli/m0_wW-R_O-O-X.png,stimuli/m0_none_O-O-X.png,stimuli/mW-R_none_O-O-X.png,stimuli/mB-M_none_O-O-B.png,stimuli/mB-M_none_B-O-X.png,stimuli/mB-M_none_X-O-X.png,stimuli/mW-L_none_X-O-X.png,stimuli/m0_none_X-O-X.png,stimuli/m0_wW-L_X-O-X.png,2,6,54,13,,,,,,,,,495.0524505787762,501.70364835928194,502.4419109952869,502.4419109952869,502.4419109952869,503.3528167428449,503.3528167428449,right,0.48377597995568067,496.10403563210275,S2,K-A,2023-01-25_13h33.38.143,knowing_that_K_ONLY,2022.2.5,60.00512045264978,
Does Anna know that the book is here?,Does Anna think that the book is here?,Is the book here?,early,30,per_2,per_K,1,0,1,no,X-X-B,O-X-B,none,X-X-B,R,L,R,stimuli/blue-R.png,stimuli/blue-L.png,stimuli/blue-R.png,mB-L,m0,stimuli/m0_w0_X-X-B.png,stimuli/m0_wW-R_X-X-B.png,stimuli/m0_none_X-X-B.png,stimuli/mW-R_none_X-X-B.png,stimuli/mB-L_none_X-X-B.png,stimuli/mB-L_none_O-X-B.png,stimuli/mB-L_none_X-X-B.png,stimuli/mW-L_none_X-X-B.png,stimuli/m0_none_X-X-B.png,stimuli/m0_wW-L_X-X-B.png,2,7,55,1,,,,,,,,,503.85299318423495,510.5034877655562,511.2660601786338,511.2660601786338,511.2660601786338,512.1526654523332,512.1526654523332,left,0.011705693323165178,504.94115935475565,S2,K-A,2023-01-25_13h33.38.143,knowing_that_K_ONLY,2022.2.5,60.00512045264978,
Does Anna know that the book is here?,Does Anna think that the book is here?,Is the book here?,late,33,per_5,per_K,1,0,1,no,X-B-O,O-B-O,none,X-B-O,M,R,M,stimuli/blue-M.png,stimuli/blue-R.png,stimuli/blue-M.png,mB-L,m0,stimuli/m0_w0_X-B-O.png,stimuli/mW-R_w0_X-B-O.png,stimuli/mB-L_w0_X-B-O.png,stimuli/mB-L_w0_O-B-O.png,stimuli/mB-L_w0_X-B-O.png,stimuli/mW-L_w0_X-B-O.png,stimuli/m0_wW-R_X-B-O.png,stimuli/m0_none_X-B-O.png,stimuli/m0_none_X-B-O.png,stimuli/m0_wW-L_X-B-O.png,2,8,56,4,,,,,,,,,512.1860212204047,518.837219321751,519.5776537911734,519.5776537911734,519.5776537911734,520.4868753252085,520.4868753252085,left,0.05526715365704149,513.2334149882663,S2,K-A,2023-01-25_13h33.38.143,knowing_that_K_ONLY,2022.2.5,60.00512045264978,
Does Anna know that the book is here?,Does Anna think that the book is here?,Is the book here?,early,45,mem_5,mem_K,0,1,0,switch,O-X-O,O-B-O,B-X-O,X-X-O,L,M,M,stimuli/blue-L.png,stimuli/blue-M.png,stimuli/blue-M.png,mB-R,m0,stimuli/m0_w0_O-X-O.png,stimuli/m0_wW-R_O-X-O.png,stimuli/m0_none_O-X-O.png,stimuli/mW-R_none_O-X-O.png,stimuli/mB-R_none_O-B-O.png,stimuli/mB-R_none_B-X-O.png,stimuli/mB-R_none_X-X-O.png,stimuli/mW-L_none_X-X-O.png,stimuli/m0_none_X-X-O.png,stimuli/m0_wW-L_X-X-O.png,2,9,57,16,,,,,,,,,520.568848402123,527.2209854926914,527.9587787943892,527.9587787943892,527.9587787943892,528.8528404821409,528.8528404821409,right,0.1996273483382538,521.6161539492896,S2,K-A,2023-01-25_13h33.38.143,knowing_that_K_ONLY,2022.2.5,60.00512045264978,
Does Anna know that the book is here?,Does Anna think that the book is here?,Is the book here?,late,32,per_4,per_K,1,0,1,no,O-X-B,O-O-B,none,O-X-B,R,L,R,stimuli/blue-R.png,stimuli/blue-L.png,stimuli/blue-R.png,mB-M,m0,stimuli/m0_w0_O-X-B.png,stimuli/mW-R_w0_O-X-B.png,stimuli/mB-M_w0_O-X-B.png,stimuli/mB-M_w0_O-O-B.png,stimuli/mB-M_w0_O-X-B.png,stimuli/mW-L_w0_O-X-B.png,stimuli/m0_wW-R_O-X-B.png,stimuli/m0_none_O-X-B.png,stimuli/m0_none_O-X-B.png,stimuli/m0_wW-L_O-X-B.png,2,10,58,3,,,,,,,,,529.0696475213626,535.7200301425764,536.4821563194273,536.4821563194273,536.4821563194273,537.3693258847343,537.3693258847343,left,0.5716004958376288,530.1238124690717,S2,K-A,2023-01-25_13h33.38.143,knowing_that_K_ONLY,2022.2.5,60.00512045264978,
Does Anna know that the book is here?,Does Anna think that the book is here?,Is the book here?,late,38,per_10,per_K,1,1,1,show,X-X-X,X-O-X,none,X-O-B,R,R,R,stimuli/blue-R.png,stimuli/blue-R.png,stimuli/blue-R.png,mB-R,m0,stimuli/m0_w0_X-X-X.png,stimuli/mW-R_w0_X-X-X.png,stimuli/mB-R_w0_X-X-X.png,stimuli/mB-R_w0_X-O-X.png,stimuli/mB-R_w0_X-O-B.png,stimuli/mW-L_w0_X-O-B.png,stimuli/m0_wW-R_X-O-B.png,stimuli/m0_none_X-O-B.png,stimuli/m0_none_X-O-B.png,stimuli/m0_wW-L_X-O-B.png,2,11,59,9,,,,,,,,,537.9695574400248,544.6208415164147,545.3598070307635,545.3598070307635,545.3598070307635,546.2697247064207,546.2697247064207,left,0.13471936399582773,539.0189443542622,S2,K-A,2023-01-25_13h33.38.143,knowing_that_K_ONLY,2022.2.5,60.00512045264978,
Does Anna know that the book is here?,Does Anna think that the book is here?,Is the book here?,late,50,mem_10,mem_K,1,1,1,show,O-O-X,O-O-B,O-B-X,O-X-X,M,M,M,stimuli/blue-M.png,stimuli/blue-M.png,stimuli/blue-M.png,mB-L,m0,stimuli/m0_w0_O-O-X.png,stimuli/mW-R_w0_O-O-X.png,stimuli/mB-L_w0_O-O-B.png,stimuli/mB-L_w0_O-B-X.png,stimuli/mB-L_w0_O-X-X.png,stimuli/mW-L_w0_O-X-X.png,stimuli/m0_wW-R_O-X-X.png,stimuli/m0_none_O-X-X.png,stimuli/m0_none_O-X-X.png,stimuli/m0_wW-L_O-X-X.png,2,12,60,21,,,,,,,,,546.4363168400014,553.0879258894129,553.8245036703302,553.8245036703302,553.8245036703302,554.7359618399059,554.7359618399059,left,0.3252247628988698,547.4948822365841,S2,K-A,2023-01-25_13h33.38.143,knowing_that_K_ONLY,2022.2.5,60.00512045264978,
Does Anna know that the book is here?,Does Anna think that the book is here?,Is the book here?,early,36,per_8,per_K,1,0,1,switch,O-X-B,B-X-O,none,B-X-X,L,M,L,stimuli/blue-L.png,stimuli/blue-M.png,stimuli/blue-L.png,mB-L,m0,stimuli/m0_w0_O-X-B.png,stimuli/m0_wW-R_O-X-B.png,stimuli/m0_none_O-X-B.png,stimuli/mW-R_none_O-X-B.png,stimuli/mB-L_none_O-X-B.png,stimuli/mB-L_none_B-X-O.png,stimuli/mB-L_none_B-X-X.png,stimuli/mW-L_none_B-X-X.png,stimuli/m0_none_B-X-X.png,stimuli/m0_wW-L_B-X-X.png,2,13,61,7,,,,,,,,,555.0859930539737,561.7374872560613,562.4746107220417,562.4746107220417,562.4746107220417,563.3862831877777,563.3862831877777,left,0.4987603472545743,556.1246808816213,S2,K-A,2023-01-25_13h33.38.143,knowing_that_K_ONLY,2022.2.5,60.00512045264978,
Does Anna know that the book is here?,Does Anna think that the book is here?,Is the book here?,early,29,per_1,per_K,1,0,1,no,B-X-X,B-O-X,none,B-X-X,L,M,L,stimuli/blue-L.png,stimuli/blue-M.png,stimuli/blue-L.png,mB-M,m0,stimuli/m0_w0_B-X-X.png,stimuli/m0_wW-R_B-X-X.png,stimuli/m0_none_B-X-X.png,stimuli/mW-R_none_B-X-X.png,stimuli/mB-M_none_B-X-X.png,stimuli/mB-M_none_B-O-X.png,stimuli/mB-M_none_B-X-X.png,stimuli/mW-L_none_B-X-X.png,stimuli/m0_none_B-X-X.png,stimuli/m0_wW-L_B-X-X.png,2,14,62,0,,,,,,,,,563.9029241795652,570.576502751559,571.291874520015,571.291874520015,571.291874520015,572.2029964884277,572.2029964884277,left,0.14665354054886848,564.9622046450386,S2,K-A,2023-01-25_13h33.38.143,knowing_that_K_ONLY,2022.2.5,60.00512045264978,
Does Anna know that the book is here?,Does Anna think that the book is here?,Is the book here?,late,51,mem_11,mem_K,1,1,1,show,O-X-O,O-B-O,O-X-B,O-X-X,R,R,R,stimuli/blue-R.png,stimuli/blue-R.png,stimuli/blue-R.png,mB-L,m0,stimuli/m0_w0_O-X-O.png,stimuli/mW-R_w0_O-X-O.png,stimuli/mB-L_w0_O-B-O.png,stimuli/mB-L_w0_O-X-B.png,stimuli/mB-L_w0_O-X-X.png,stimuli/mW-L_w0_O-X-X.png,stimuli/m0_wW-R_O-X-X.png,stimuli/m0_none_O-X-X.png,stimuli/m0_none_O-X-X.png,stimuli/m0_wW-L_O-X-X.png,2,15,63,22,,,,,,,,,572.3694933436345,579.0199779800605,579.7600053509232,579.7600053509232,579.7600053509232,580.6694719782099,580.6694719782099,left,0.38294933596625924,573.4200345055433,S2,K-A,2023-01-25_13h33.38.143,knowing_that_K_ONLY,2022.2.5,60.00512045264978,
Does Anna know that the book is here?,Does Anna think that the book is here?,Is the book here?,early,31,per_3,per_K,1,0,1,no,O-B-X,O-B-O,none,O-B-X,M,R,M,stimuli/blue-M.png,stimuli/blue-R.png,stimuli/blue-M.png,mB-R,m0,stimuli/m0_w0_O-B-X.png,stimuli/m0_wW-R_O-B-X.png,stimuli/m0_none_O-B-X.png,stimuli/mW-R_none_O-B-X.png,stimuli/mB-R_none_O-B-X.png,stimuli/mB-R_none_O-B-O.png,stimuli/mB-R_none_O-B-X.png,stimuli/mW-L_none_O-B-X.png,stimuli/m0_none_O-B-X.png,stimuli/m0_wW-L_O-B-X.png,2,16,64,2,,,,,,,,,581.0695750199957,587.7215918095317,588.4577743615955,588.4577743615955,588.4577743615955,589.3697740458883,589.3697740458883,left,0.33906258177012205,582.122623253963,S2,K-A,2023-01-25_13h33.38.143,knowing_that_K_ONLY,2022.2.5,60.00512045264978,
Does Anna know that the book is here?,Does Anna think that the book is here?,Is the book here?,early,49,mem_9,mem_K,0,1,0,switch,X-O-O,B-O-O,X-B-O,X-X-O,M,L,L,stimuli/blue-M.png,stimuli/blue-L.png,stimuli/blue-L.png,mB-R,m0,stimuli/m0_w0_X-O-O.png,stimuli/m0_wW-R_X-O-O.png,stimuli/m0_none_X-O-O.png,stimuli/mW-R_none_X-O-O.png,stimuli/mB-R_none_B-O-O.png,stimuli/mB-R_none_X-B-O.png,stimuli/mB-R_none_X-X-O.png,stimuli/mW-L_none_X-X-O.png,stimuli/m0_none_X-X-O.png,stimuli/m0_wW-L_X-X-O.png,2,17,65,20,,,,,,,,,589.7363503318047,596.3867846021894,597.1265787496231,597.1265787496231,597.1265787496231,598.0360004644608,598.0360004644608,right,0.0019321221625432372,590.791602800251,S2,K-A,2023-01-25_13h33.38.143,knowing_that_K_ONLY,2022.2.5,60.00512045264978,
Does Anna know that the book is here?,Does Anna think that the book is here?,Is the book here?,early,47,mem_7,mem_K,0,1,0,switch,X-O-O,B-O-O,X-O-B,X-O-X,R,L,L,stimuli/blue-R.png,stimuli/blue-L.png,stimuli/blue-L.png,mB-M,m0,stimuli/m0_w0_X-O-O.png,stimuli/m0_wW-R_X-O-O.png,stimuli/m0_none_X-O-O.png,stimuli/mW-R_none_X-O-O.png,stimuli/mB-M_none_B-O-O.png,stimuli/mB-M_none_X-O-B.png,stimuli/mB-M_none_X-O-X.png,stimuli/mW-L_none_X-O-X.png,stimuli/m0_none_X-O-X.png,stimuli/m0_wW-L_X-O-X.png,2,18,66,18,,,,,,,,,598.0695349196903,604.7218641708605,605.4584592750762,605.4584592750762,605.4584592750762,606.3695356895914,606.3695356895914,right,0.18028263235464692,599.1089689340442,S2,K-A,2023-01-25_13h33.38.143,knowing_that_K_ONLY,2022.2.5,60.00512045264978,
Does Anna know that the book is here?,Does Anna think that the book is here?,Is the book here?,early,44,mem_4,mem_K,0,1,0,switch,O-X-O,O-B-O,O-X-B,O-X-X,R,M,M,stimuli/blue-R.png,stimuli/blue-M.png,stimuli/blue-M.png,mB-L,m0,stimuli/m0_w0_O-X-O.png,stimuli/m0_wW-R_O-X-O.png,stimuli/m0_none_O-X-O.png,stimuli/mW-R_none_O-X-O.png,stimuli/mB-L_none_O-B-O.png,stimuli/mB-L_none_O-X-B.png,stimuli/mB-L_none_O-X-X.png,stimuli/mW-L_none_O-X-X.png,stimuli/m0_none_O-X-X.png,stimuli/m0_wW-L_O-X-X.png,2,19,67,15,,,,,,,,,606.56938991684,613.2210775630083,613.980689930846,613.980689930846,613.980689930846,614.8698577753967,614.8698577753967,right,0.24770699196960777,607.6089390994748,S2,K-A,2023-01-25_13h33.38.143,knowing_that_K_ONLY,2022.2.5,60.00512045264978,
Does Anna know that the book is here?,Does Anna think that the book is here?,Is the book here?,late,34,per_6,per_K,1,0,1,no,X-B-X,O-B-X,none,X-B-X,M,R,M,stimuli/blue-M.png,stimuli/blue-R.png,stimuli/blue-M.png,mB-L,m0,stimuli/m0_w0_X-B-X.png,stimuli/mW-R_w0_X-B-X.png,stimuli/mB-L_w0_X-B-X.png,stimuli/mB-L_w0_O-B-X.png,stimuli/mB-L_w0_X-B-X.png,stimuli/mW-L_w0_X-B-X.png,stimuli/m0_wW-R_X-B-X.png,stimuli/m0_none_X-B-X.png,stimuli/m0_none_X-B-X.png,stimuli/m0_wW-L_X-B-X.png,2,20,68,5,,,,,,,,,615.1367372839013,621.7857003536774,622.5457204616396,622.5457204616396,622.5457204616396,623.4366216023918,623.4366216023918,left,0.19233807222917676,616.1899606760126,S2,K-A,2023-01-25_13h33.38.143,knowing_that_K_ONLY,2022.2.5,60.00512045264978,
Does Anna know that the book is here?,Does Anna think that the book is here?,Is the book here?,early,48,mem_8,mem_K,0,1,0,switch,X-O-O,B-O-O,X-B-O,X-X-O,M,L,L,stimuli/blue-M.png,stimuli/blue-L.png,stimuli/blue-L.png,mB-R,m0,stimuli/m0_w0_X-O-O.png,stimuli/m0_wW-R_X-O-O.png,stimuli/m0_none_X-O-O.png,stimuli/mW-R_none_X-O-O.png,stimuli/mB-R_none_B-O-O.png,stimuli/mB-R_none_X-B-O.png,stimuli/mB-R_none_X-X-O.png,stimuli/mW-L_none_X-X-O.png,stimuli/m0_none_X-X-O.png,stimuli/m0_wW-L_X-X-O.png,2,21,69,19,,,,,,,,,623.6531793780159,630.3048192245187,631.042493187706,631.042493187706,631.042493187706,631.9529016913148,631.9529016913148,right,0.16354090871755034,624.7051971941255,S2,K-A,2023-01-25_13h33.38.143,knowing_that_K_ONLY,2022.2.5,60.00512045264978,
Does Anna know that the book is here?,Does Anna think that the book is here?,Is the book here?,late,52,mem_12,mem_K,1,1,1,show,X-O-O,B-O-O,X-O-B,X-O-X,R,R,R,stimuli/blue-R.png,stimuli/blue-R.png,stimuli/blue-R.png,mB-M,m0,stimuli/m0_w0_X-O-O.png,stimuli/mW-R_w0_X-O-O.png,stimuli/mB-M_w0_B-O-O.png,stimuli/mB-M_w0_X-O-B.png,stimuli/mB-M_w0_X-O-X.png,stimuli/mW-L_w0_X-O-X.png,stimuli/m0_wW-R_X-O-X.png,stimuli/m0_none_X-O-X.png,stimuli/m0_none_X-O-X.png,stimuli/m0_wW-L_X-O-X.png,2,22,70,23,,,,,,,,,632.1363298646174,638.8093970771879,639.5244053764036,639.5244053764036,639.5244053764036,640.4362395266071,640.4362395266071,left,0.4254999472759664,633.1900793729583,S2,K-A,2023-01-25_13h33.38.143,knowing_that_K_ONLY,2022.2.5,60.00512045264978,
Does Anna know that the book is here?,Does Anna think that the book is here?,Is the book here?,early,46,mem_6,mem_K,0,1,0,switch,O-X-O,O-B-O,O-X-B,O-X-X,R,M,M,stimuli/blue-R.png,stimuli/blue-M.png,stimuli/blue-M.png,mB-L,m0,stimuli/m0_w0_O-X-O.png,stimuli/m0_wW-R_O-X-O.png,stimuli/m0_none_O-X-O.png,stimuli/mW-R_none_O-X-O.png,stimuli/mB-L_none_O-B-O.png,stimuli/mB-L_none_O-X-B.png,stimuli/mB-L_none_O-X-X.png,stimuli/mW-L_none_O-X-X.png,stimuli/m0_none_O-X-X.png,stimuli/m0_wW-L_O-X-X.png,2,23,71,17,,,,,,,,,640.8864371730015,647.5376968685305,648.2749861894408,648.2749861894408,648.2749861894408,649.1862384037813,649.1862384037813,right,0.011053501744754612,641.9431072680745,S2,K-A,2023-01-25_13h33.38.143,knowing_that_K_ONLY,2022.2.5,60.00512045264978,
