K_text,B_text,T_text,Anna_exit,trial_num,trial_code,cond,K_hit,B_hit,T_hit,book_move,start_shelf,mid_shelf,mid_shelf_2,end_shelf,rectangle,rectangle_B,rectangle_T,rectangle_path,rectangle_path_B,rectangle_path_T,Todd_mid,Todd_final,frame_1,frame_2,frame_3,frame_4,frame_5,frame_6,frame_7,frame_8,frame_9,frame_10,trials.thisRepN,trials.thisTrialN,trials.thisN,trials.thisIndex,frames.thisRepN,frames.thisTrialN,frames.thisN,frames.thisIndex,sessionInst.started,startSession.started,startSession.keys,startSession.rt,crossText.started,movingImage.started,staticImage.started,promptText3.started,rectImage.started,respText.started,keyResp.started,keyResp.keys,keyResp.rt,crossText.stopped,subject,session,date,expName,psychopyVersion,frameRate,
,,,,,,,,,,,,,,,,,,,,,,,,,,,,,,,,,,,,,,,,,16.719341379473917,16.719341379473917,left,39.30226435454097,,,,,,,,,,,S2,T-A,2023-01-25_13h09.52.363,knowing_that_K_ONLY,2022.2.5,60.016904661962656,
Does Anna know that the book is here?,Does Anna think that the book is here?,Is the book here?,late,32,per_4,per_K,1,0,1,no,O-X-B,O-O-B,none,O-X-B,R,L,R,stimuli/blue-R.png,stimuli/blue-L.png,stimuli/blue-R.png,mB-M,m0,stimuli/m0_w0_O-X-B.png,stimuli/mW-R_w0_O-X-B.png,stimuli/mB-M_w0_O-X-B.png,stimuli/mB-M_w0_O-O-B.png,stimuli/mB-M_w0_O-X-B.png,stimuli/mW-L_w0_O-X-B.png,stimuli/m0_wW-R_O-X-B.png,stimuli/m0_none_O-X-B.png,stimuli/m0_none_O-X-B.png,stimuli/m0_wW-L_O-X-B.png,0,0,0,3,,,,,,,,,56.075183290522546,62.71223014884163,63.46370664262213,63.46370664262213,63.46370664262213,64.33925898454618,64.33925898454618,left,0.09887167485430837,,S2,T-A,2023-01-25_13h09.52.363,knowing_that_K_ONLY,2022.2.5,60.016904661962656,
Does Anna know that the book is here?,Does Anna think that the book is here?,Is the book here?,late,39,per_11,per_K,1,1,1,show,X-X-O,X-B-O,none,X-B-O,M,M,M,stimuli/blue-M.png,stimuli/blue-M.png,stimuli/blue-M.png,mB-M,m0,stimuli/m0_w0_X-X-O.png,stimuli/mW-R_w0_X-X-O.png,stimuli/mB-M_w0_X-X-O.png,stimuli/mB-M_w0_X-B-O.png,stimuli/mB-M_w0_X-B-O.png,stimuli/mW-L_w0_X-B-O.png,stimuli/m0_wW-R_X-B-O.png,stimuli/m0_none_X-B-O.png,stimuli/m0_none_X-B-O.png,stimuli/m0_wW-L_X-B-O.png,0,1,1,10,,,,,,,,,64.45607122068759,71.13194738060702,71.87192438554484,71.87192438554484,71.87192438554484,72.75656923453789,72.75656923453789,left,0.9765214237850159,65.50424197234679,S2,T-A,2023-01-25_13h09.52.363,knowing_that_K_ONLY,2022.2.5,60.016904661962656,
Does Anna know that the book is here?,Does Anna think that the book is here?,Is the book here?,early,29,per_1,per_K,1,0,1,no,B-X-X,B-O-X,none,B-X-X,L,M,L,stimuli/blue-L.png,stimuli/blue-M.png,stimuli/blue-L.png,mB-M,m0,stimuli/m0_w0_B-X-X.png,stimuli/m0_wW-R_B-X-X.png,stimuli/m0_none_B-X-X.png,stimuli/mW-R_none_B-X-X.png,stimuli/mB-M_none_B-X-X.png,stimuli/mB-M_none_B-O-X.png,stimuli/mB-M_none_B-X-X.png,stimuli/mW-L_none_B-X-X.png,stimuli/m0_none_B-X-X.png,stimuli/m0_wW-L_B-X-X.png,0,2,2,0,,,,,,,,,73.75647459784523,80.43148876121268,81.16882844816428,81.16882844816428,81.16882844816428,82.05611157766543,82.05611157766543,left,0.5819454896263778,74.80911669577472,S2,T-A,2023-01-25_13h09.52.363,knowing_that_K_ONLY,2022.2.5,60.016904661962656,
Does Anna know that the book is here?,Does Anna think that the book is here?,Is the book here?,early,36,per_8,per_K,1,0,1,switch,O-X-B,B-X-O,none,B-X-X,L,M,L,stimuli/blue-L.png,stimuli/blue-M.png,stimuli/blue-L.png,mB-L,m0,stimuli/m0_w0_O-X-B.png,stimuli/m0_wW-R_O-X-B.png,stimuli/m0_none_O-X-B.png,stimuli/mW-R_none_O-X-B.png,stimuli/mB-L_none_O-X-B.png,stimuli/mB-L_none_B-X-O.png,stimuli/mB-L_none_B-X-X.png,stimuli/mW-L_none_B-X-X.png,stimuli/m0_none_B-X-X.png,stimuli/m0_wW-L_B-X-X.png,0,3,3,7,,,,,,,,,82.65626614028588,89.33289714867715,90.0459139054874,90.0459139054874,90.0459139054874,90.95600224810187,90.95600224810187,left,0.5456874205265194,83.71182208799291,S2,T-A,2023-01-25_13h09.52.363,knowing_that_K_ONLY,2022.2.5,60.016904661962656,
Does Anna know that the book is here?,Does Anna think that the book is here?,Is the book here?,late,52,mem_12,mem_K,1,1,1,show,X-O-O,B-O-O,X-O-B,X-O-X,R,R,R,stimuli/blue-R.png,stimuli/blue-R.png,stimuli/blue-R.png,mB-M,m0,stimuli/m0_w0_X-O-O.png,stimuli/mW-R_w0_X-O-O.png,stimuli/mB-M_w0_B-O-O.png,stimuli/mB-M_w0_X-O-B.png,stimuli/mB-M_w0_X-O-X.png,stimuli/mW-L_w0_X-O-X.png,stimuli/m0_wW-R_X-O-X.png,stimuli/m0_none_X-O-X.png,stimuli/m0_none_X-O-X.png,stimuli/m0_wW-L_X-O-X.png,0,4,4,23,,,,,,,,,91.52263999974821,98.19648932910059,98.9308137926273,98.9308137926273,98.9308137926273,99.82309566775803,99.82309566775803,left,0.735981731209904,92.58323318941984,S2,T-A,2023-01-25_13h09.52.363,knowing_that_K_ONLY,2022.2.5,60.016904661962656,
Does Anna know that the book is here?,Does Anna think that the book is here?,Is the book here?,late,34,per_6,per_K,1,0,1,no,X-B-X,O-B-X,none,X-B-X,M,R,M,stimuli/blue-M.png,stimuli/blue-R.png,stimuli/blue-M.png,mB-L,m0,stimuli/m0_w0_X-B-X.png,stimuli/mW-R_w0_X-B-X.png,stimuli/mB-L_w0_X-B-X.png,stimuli/mB-L_w0_O-B-X.png,stimuli/mB-L_w0_X-B-X.png,stimuli/mW-L_w0_X-B-X.png,stimuli/m0_wW-R_X-B-X.png,stimuli/m0_none_X-B-X.png,stimuli/m0_none_X-B-X.png,stimuli/m0_wW-L_X-B-X.png,0,5,5,5,,,,,,,,,100.58943879429717,107.26300742139574,107.97517020173836,107.97517020173836,107.97517020173836,108.88942192017566,108.88942192017566,left,0.6041408570017666,101.65300903178286,S2,T-A,2023-01-25_13h09.52.363,knowing_that_K_ONLY,2022.2.5,60.016904661962656,
Does Anna know that the book is here?,Does Anna think that the book is here?,Is the book here?,early,45,mem_5,mem_K,0,1,0,switch,O-X-O,O-B-O,B-X-O,X-X-O,L,M,M,stimuli/blue-L.png,stimuli/blue-M.png,stimuli/blue-M.png,mB-R,m0,stimuli/m0_w0_O-X-O.png,stimuli/m0_wW-R_O-X-O.png,stimuli/m0_none_O-X-O.png,stimuli/mW-R_none_O-X-O.png,stimuli/mB-R_none_O-B-O.png,stimuli/mB-R_none_B-X-O.png,stimuli/mB-R_none_X-X-O.png,stimuli/mW-L_none_X-X-O.png,stimuli/m0_none_X-X-O.png,stimuli/m0_wW-L_X-X-O.png,0,6,6,16,,,,,,,,,109.52277088724077,116.17465422290843,116.93564957065973,116.93564957065973,116.93564957065973,117.82272449915763,117.82272449915763,right,0.08619131159503013,110.56826389988419,S2,T-A,2023-01-25_13h09.52.363,knowing_that_K_ONLY,2022.2.5,60.016904661962656,
Does Anna know that the book is here?,Does Anna think that the book is here?,Is the book here?,early,41,mem_1,mem_K,0,1,0,switch,O-O-X,O-O-B,O-B-X,O-X-X,M,R,R,stimuli/blue-M.png,stimuli/blue-R.png,stimuli/blue-R.png,mB-L,m0,stimuli/m0_w0_O-O-X.png,stimuli/m0_wW-R_O-O-X.png,stimuli/m0_none_O-O-X.png,stimuli/mW-R_none_O-O-X.png,stimuli/mB-L_none_O-O-B.png,stimuli/mB-L_none_O-B-X.png,stimuli/mB-L_none_O-X-X.png,stimuli/mW-L_none_O-X-X.png,stimuli/m0_none_O-X-X.png,stimuli/m0_wW-L_O-X-X.png,0,7,7,12,,,,,,,,,117.9392788100522,124.61524832353462,125.35232687718235,125.35232687718235,125.35232687718235,126.23959011689294,126.23959011689294,right,0.6695935640018433,118.98926017142367,S2,T-A,2023-01-25_13h09.52.363,knowing_that_K_ONLY,2022.2.5,60.016904661962656,
Does Anna know that the book is here?,Does Anna think that the book is here?,Is the book here?,early,35,per_7,per_K,1,0,1,switch,B-X-O,O-X-B,none,X-X-B,R,L,R,stimuli/blue-R.png,stimuli/blue-L.png,stimuli/blue-R.png,mB-R,m0,stimuli/m0_w0_B-X-O.png,stimuli/m0_wW-R_B-X-O.png,stimuli/m0_none_B-X-O.png,stimuli/mW-R_none_B-X-O.png,stimuli/mB-R_none_B-X-O.png,stimuli/mB-R_none_O-X-B.png,stimuli/mB-R_none_X-X-B.png,stimuli/mW-L_none_X-X-B.png,stimuli/m0_none_X-X-B.png,stimuli/m0_wW-L_X-X-B.png,0,8,8,6,,,,,,,,,126.93979081104044,133.5919609441189,134.3501550438814,134.3501550438814,134.3501550438814,135.2396902072942,135.2396902072942,left,0.46931748127099127,127.99639000860043,S2,T-A,2023-01-25_13h09.52.363,knowing_that_K_ONLY,2022.2.5,60.016904661962656,
Does Anna know that the book is here?,Does Anna think that the book is here?,Is the book here?,late,51,mem_11,mem_K,1,1,1,show,O-X-O,O-B-O,O-X-B,O-X-X,R,R,R,stimuli/blue-R.png,stimuli/blue-R.png,stimuli/blue-R.png,mB-L,m0,stimuli/m0_w0_O-X-O.png,stimuli/mW-R_w0_O-X-O.png,stimuli/mB-L_w0_O-B-O.png,stimuli/mB-L_w0_O-X-B.png,stimuli/mB-L_w0_O-X-X.png,stimuli/mW-L_w0_O-X-X.png,stimuli/m0_wW-R_O-X-X.png,stimuli/m0_none_O-X-X.png,stimuli/m0_none_O-X-X.png,stimuli/m0_wW-L_O-X-X.png,0,9,9,22,,,,,,,,,135.73952274839394,142.41531582048628,143.15269496606197,143.15269496606197,143.15269496606197,144.0396518392954,144.0396518392954,left,0.38902220188174397,136.80087239050772,S2,T-A,2023-01-25_13h09.52.363,knowing_that_K_ONLY,2022.2.5,60.016904661962656,
Does Anna know that the book is here?,Does Anna think that the book is here?,Is the book here?,late,50,mem_10,mem_K,1,1,1,show,O-O-X,O-O-B,O-B-X,O-X-X,M,M,M,stimuli/blue-M.png,stimuli/blue-M.png,stimuli/blue-M.png,mB-L,m0,stimuli/m0_w0_O-O-X.png,stimuli/mW-R_w0_O-O-X.png,stimuli/mB-L_w0_O-O-B.png,stimuli/mB-L_w0_O-B-X.png,stimuli/mB-L_w0_O-X-X.png,stimuli/mW-L_w0_O-X-X.png,stimuli/m0_wW-R_O-X-X.png,stimuli/m0_none_O-X-X.png,stimuli/m0_none_O-X-X.png,stimuli/m0_wW-L_O-X-X.png,0,10,10,21,,,,,,,,,144.45619633363094,151.13144692860078,151.87021547020413,151.87021547020413,151.87021547020413,152.75610118359327,152.75610118359327,left,0.6823412957601249,145.51705995982047,S2,T-A,2023-01-25_13h09.52.363,knowing_that_K_ONLY,2022.2.5,60.016904661962656,
Does Anna know that the book is here?,Does Anna think that the book is here?,Is the book here?,early,43,mem_3,mem_K,0,1,0,switch,O-O-X,O-O-B,B-O-X,X-O-X,L,R,R,stimuli/blue-L.png,stimuli/blue-R.png,stimuli/blue-R.png,mB-M,m0,stimuli/m0_w0_O-O-X.png,stimuli/m0_wW-R_O-O-X.png,stimuli/m0_none_O-O-X.png,stimuli/mW-R_none_O-O-X.png,stimuli/mB-M_none_O-O-B.png,stimuli/mB-M_none_B-O-X.png,stimuli/mB-M_none_X-O-X.png,stimuli/mW-L_none_X-O-X.png,stimuli/m0_none_X-O-X.png,stimuli/m0_wW-L_X-O-X.png,0,11,11,14,,,,,,,,,153.45622103544883,160.13354850630276,160.86721179576125,160.86721179576125,160.86721179576125,161.75621314370073,161.75621314370073,right,0.5453723925165832,154.5070104985498,S2,T-A,2023-01-25_13h09.52.363,knowing_that_K_ONLY,2022.2.5,60.016904661962656,
Does Anna know that the book is here?,Does Anna think that the book is here?,Is the book here?,early,44,mem_4,mem_K,0,1,0,switch,O-X-O,O-B-O,O-X-B,O-X-X,R,M,M,stimuli/blue-R.png,stimuli/blue-M.png,stimuli/blue-M.png,mB-L,m0,stimuli/m0_w0_O-X-O.png,stimuli/m0_wW-R_O-X-O.png,stimuli/m0_none_O-X-O.png,stimuli/mW-R_none_O-X-O.png,stimuli/mB-L_none_O-B-O.png,stimuli/mB-L_none_O-X-B.png,stimuli/mB-L_none_O-X-X.png,stimuli/mW-L_none_O-X-X.png,stimuli/m0_none_O-X-X.png,stimuli/m0_wW-L_O-X-X.png,0,12,12,15,,,,,,,,,162.32286757708061,168.99623153219,169.73328730883077,169.73328730883077,169.73328730883077,170.62226684228517,170.62226684228517,right,0.014832629356533289,163.37628986686468,S2,T-A,2023-01-25_13h09.52.363,knowing_that_K_ONLY,2022.2.5,60.016904661962656,
Does Anna know that the book is here?,Does Anna think that the book is here?,Is the book here?,late,33,per_5,per_K,1,0,1,no,X-B-O,O-B-O,none,X-B-O,M,R,M,stimuli/blue-M.png,stimuli/blue-R.png,stimuli/blue-M.png,mB-L,m0,stimuli/m0_w0_X-B-O.png,stimuli/mW-R_w0_X-B-O.png,stimuli/mB-L_w0_X-B-O.png,stimuli/mB-L_w0_O-B-O.png,stimuli/mB-L_w0_X-B-O.png,stimuli/mW-L_w0_X-B-O.png,stimuli/m0_wW-R_X-B-O.png,stimuli/m0_none_X-B-O.png,stimuli/m0_none_X-B-O.png,stimuli/m0_wW-L_X-B-O.png,0,13,13,4,,,,,,,,,170.65553759771865,177.32985626114532,178.06601282814518,178.06601282814518,178.06601282814518,178.9395915926434,178.9395915926434,left,0.25021542061585933,171.7102854436962,S2,T-A,2023-01-25_13h09.52.363,knowing_that_K_ONLY,2022.2.5,60.016904661962656,
Does Anna know that the book is here?,Does Anna think that the book is here?,Is the book here?,early,31,per_3,per_K,1,0,1,no,O-B-X,O-B-O,none,O-B-X,M,R,M,stimuli/blue-M.png,stimuli/blue-R.png,stimuli/blue-M.png,mB-R,m0,stimuli/m0_w0_O-B-X.png,stimuli/m0_wW-R_O-B-X.png,stimuli/m0_none_O-B-X.png,stimuli/mW-R_none_O-B-X.png,stimuli/mB-R_none_O-B-X.png,stimuli/mB-R_none_O-B-O.png,stimuli/mB-R_none_O-B-X.png,stimuli/mW-L_none_O-B-X.png,stimuli/m0_none_O-B-X.png,stimuli/m0_wW-L_O-B-X.png,0,14,14,2,,,,,,,,,179.20622247911524,185.88180446310434,186.62087840866297,186.62087840866297,186.62087840866297,187.50622677779756,187.50622677779756,left,0.5870106413494796,180.2683757316554,S2,T-A,2023-01-25_13h09.52.363,knowing_that_K_ONLY,2022.2.5,60.016904661962656,
Does Anna know that the book is here?,Does Anna think that the book is here?,Is the book here?,early,42,mem_2,mem_K,0,1,0,switch,O-O-X,O-O-B,B-O-X,X-O-X,L,R,R,stimuli/blue-L.png,stimuli/blue-R.png,stimuli/blue-R.png,mB-M,m0,stimuli/m0_w0_O-O-X.png,stimuli/m0_wW-R_O-O-X.png,stimuli/m0_none_O-O-X.png,stimuli/mW-R_none_O-O-X.png,stimuli/mB-M_none_O-O-B.png,stimuli/mB-M_none_B-O-X.png,stimuli/mB-M_none_X-O-X.png,stimuli/mW-L_none_X-O-X.png,stimuli/m0_none_X-O-X.png,stimuli/m0_wW-L_X-O-X.png,0,15,15,13,,,,,,,,,188.12292577070184,194.79388146079145,195.53583685518242,195.53583685518242,195.53583685518242,196.4229275030084,196.4229275030084,right,0.43099889752920717,189.1858245683834,S2,T-A,2023-01-25_13h09.52.363,knowing_that_K_ONLY,2022.2.5,60.016904661962656,
Does Anna know that the book is here?,Does Anna think that the book is here?,Is the book here?,early,30,per_2,per_K,1,0,1,no,X-X-B,O-X-B,none,X-X-B,R,L,R,stimuli/blue-R.png,stimuli/blue-L.png,stimuli/blue-R.png,mB-L,m0,stimuli/m0_w0_X-X-B.png,stimuli/m0_wW-R_X-X-B.png,stimuli/m0_none_X-X-B.png,stimuli/mW-R_none_X-X-B.png,stimuli/mB-L_none_X-X-B.png,stimuli/mB-L_none_O-X-B.png,stimuli/mB-L_none_X-X-B.png,stimuli/mW-L_none_X-X-B.png,stimuli/m0_none_X-X-B.png,stimuli/m0_wW-L_X-X-B.png,0,16,16,1,,,,,,,,,196.87289385090116,203.54836515791249,204.26285311533138,204.26285311533138,204.26285311533138,205.17303769872524,205.17303769872524,left,0.5055842120200396,197.92482825834304,S2,T-A,2023-01-25_13h09.52.363,knowing_that_K_ONLY,2022.2.5,60.016904661962656,
Does Anna know that the book is here?,Does Anna think that the book is here?,Is the book here?,late,38,per_10,per_K,1,1,1,show,X-X-X,X-O-X,none,X-O-B,R,R,R,stimuli/blue-R.png,stimuli/blue-R.png,stimuli/blue-R.png,mB-R,m0,stimuli/m0_w0_X-X-X.png,stimuli/mW-R_w0_X-X-X.png,stimuli/mB-R_w0_X-X-X.png,stimuli/mB-R_w0_X-O-X.png,stimuli/mB-R_w0_X-O-B.png,stimuli/mW-L_w0_X-O-B.png,stimuli/m0_wW-R_X-O-B.png,stimuli/m0_none_X-O-B.png,stimuli/m0_none_X-O-B.png,stimuli/m0_wW-L_X-O-B.png,0,17,17,9,,,,,,,,,205.706175321131,212.38268057489768,213.12137982307468,213.12137982307468,213.12137982307468,214.0059040504275,214.0059040504275,left,0.46360013796947896,206.75723329593893,S2,T-A,2023-01-25_13h09.52.363,knowing_that_K_ONLY,2022.2.5,60.016904661962656,
Does Anna know that the book is here?,Does Anna think that the book is here?,Is the book here?,early,48,mem_8,mem_K,0,1,0,switch,X-O-O,B-O-O,X-B-O,X-X-O,M,L,L,stimuli/blue-M.png,stimuli/blue-L.png,stimuli/blue-L.png,mB-R,m0,stimuli/m0_w0_X-O-O.png,stimuli/m0_wW-R_X-O-O.png,stimuli/m0_none_X-O-O.png,stimuli/mW-R_none_X-O-O.png,stimuli/mB-R_none_B-O-O.png,stimuli/mB-R_none_X-B-O.png,stimuli/mB-R_none_X-X-O.png,stimuli/mW-L_none_X-X-O.png,stimuli/m0_none_X-X-O.png,stimuli/m0_wW-L_X-X-O.png,0,18,18,19,,,,,,,,,214.48926145466976,221.16728699184023,221.90250039938837,221.90250039938837,221.90250039938837,222.78965103731025,222.78965103731025,right,0.47106938413344324,215.53983277198859,S2,T-A,2023-01-25_13h09.52.363,knowing_that_K_ONLY,2022.2.5,60.016904661962656,
Does Anna know that the book is here?,Does Anna think that the book is here?,Is the book here?,early,37,per_9,per_K,1,0,1,switch,X-O-B,X-B-O,none,X-B-X,M,R,M,stimuli/blue-M.png,stimuli/blue-R.png,stimuli/blue-M.png,mB-R,m0,stimuli/m0_w0_X-O-B.png,stimuli/m0_wW-R_X-O-B.png,stimuli/m0_none_X-O-B.png,stimuli/mW-R_none_X-O-B.png,stimuli/mB-R_none_X-O-B.png,stimuli/mB-R_none_X-B-O.png,stimuli/mB-R_none_X-B-X.png,stimuli/mW-L_none_X-B-X.png,stimuli/m0_none_X-B-X.png,stimuli/m0_wW-L_X-B-X.png,0,19,19,8,,,,,,,,,223.289808230591,229.9621465797536,230.69756498013157,230.69756498013157,230.69756498013157,231.58952509018127,231.58952509018127,left,0.40015116380527616,224.3529691239819,S2,T-A,2023-01-25_13h09.52.363,knowing_that_K_ONLY,2022.2.5,60.016904661962656,
Does Anna know that the book is here?,Does Anna think that the book is here?,Is the book here?,early,46,mem_6,mem_K,0,1,0,switch,O-X-O,O-B-O,O-X-B,O-X-X,R,M,M,stimuli/blue-R.png,stimuli/blue-M.png,stimuli/blue-M.png,mB-L,m0,stimuli/m0_w0_O-X-O.png,stimuli/m0_wW-R_O-X-O.png,stimuli/m0_none_O-X-O.png,stimuli/mW-R_none_O-X-O.png,stimuli/mB-L_none_O-B-O.png,stimuli/mB-L_none_O-X-B.png,stimuli/mB-L_none_O-X-X.png,stimuli/mW-L_none_O-X-X.png,stimuli/m0_none_O-X-X.png,stimuli/m0_wW-L_O-X-X.png,0,20,20,17,,,,,,,,,232.0063368130941,238.67956763505936,239.41603056853637,239.41603056853637,239.41603056853637,240.30659390427172,240.30659390427172,right,0.04312581196427345,233.06516334298067,S2,T-A,2023-01-25_13h09.52.363,knowing_that_K_ONLY,2022.2.5,60.016904661962656,
Does Anna know that the book is here?,Does Anna think that the book is here?,Is the book here?,early,47,mem_7,mem_K,0,1,0,switch,X-O-O,B-O-O,X-O-B,X-O-X,R,L,L,stimuli/blue-R.png,stimuli/blue-L.png,stimuli/blue-L.png,mB-M,m0,stimuli/m0_w0_X-O-O.png,stimuli/m0_wW-R_X-O-O.png,stimuli/m0_none_X-O-O.png,stimuli/mW-R_none_X-O-O.png,stimuli/mB-M_none_B-O-O.png,stimuli/mB-M_none_X-O-B.png,stimuli/mB-M_none_X-O-X.png,stimuli/mW-L_none_X-O-X.png,stimuli/m0_none_X-O-X.png,stimuli/m0_wW-L_X-O-X.png,0,21,21,18,,,,,,,,,240.37304109928664,247.04682626808062,247.78576740145218,247.78576740145218,247.78576740145218,248.67282051534858,248.67282051534858,right,0.5723076179856434,241.42495401285123,S2,T-A,2023-01-25_13h09.52.363,knowing_that_K_ONLY,2022.2.5,60.016904661962656,
Does Anna know that the book is here?,Does Anna think that the book is here?,Is the book here?,late,40,per_12,per_K,1,1,1,show,O-X-X,O-B-X,none,O-B-X,M,M,M,stimuli/blue-M.png,stimuli/blue-M.png,stimuli/blue-M.png,mB-M,m0,stimuli/m0_w0_O-X-X.png,stimuli/mW-R_w0_O-X-X.png,stimuli/mB-M_w0_O-X-X.png,stimuli/mB-M_w0_O-B-X.png,stimuli/mB-M_w0_O-B-X.png,stimuli/mW-L_w0_O-B-X.png,stimuli/m0_wW-R_O-B-X.png,stimuli/m0_none_O-B-X.png,stimuli/m0_none_O-B-X.png,stimuli/m0_wW-L_O-B-X.png,0,22,22,11,,,,,,,,,249.27300779998768,255.94554280105513,256.6858229644131,256.6858229644131,256.6858229644131,257.57315004384145,257.57315004384145,left,0.4082905666437,250.32423740415834,S2,T-A,2023-01-25_13h09.52.363,knowing_that_K_ONLY,2022.2.5,60.016904661962656,
Does Anna know that the book is here?,Does Anna think that the book is here?,Is the book here?,early,49,mem_9,mem_K,0,1,0,switch,X-O-O,B-O-O,X-B-O,X-X-O,M,L,L,stimuli/blue-M.png,stimuli/blue-L.png,stimuli/blue-L.png,mB-R,m0,stimuli/m0_w0_X-O-O.png,stimuli/m0_wW-R_X-O-O.png,stimuli/m0_none_X-O-O.png,stimuli/mW-R_none_X-O-O.png,stimuli/mB-R_none_B-O-O.png,stimuli/mB-R_none_X-B-O.png,stimuli/mB-R_none_X-X-O.png,stimuli/mW-L_none_X-X-O.png,stimuli/m0_none_X-X-O.png,stimuli/m0_wW-L_X-X-O.png,0,23,23,20,,,,,,,,,258.0064102768665,264.6809130810434,265.41945545678027,265.41945545678027,265.41945545678027,266.30639404430985,266.30639404430985,right,0.4438480028184131,259.06166948215105,S2,T-A,2023-01-25_13h09.52.363,knowing_that_K_ONLY,2022.2.5,60.016904661962656,
Does Anna know that the book is here?,Does Anna think that the book is here?,Is the book here?,late,52,mem_12,mem_K,1,1,1,show,X-O-O,B-O-O,X-O-B,X-O-X,R,R,R,stimuli/blue-R.png,stimuli/blue-R.png,stimuli/blue-R.png,mB-M,m0,stimuli/m0_w0_X-O-O.png,stimuli/mW-R_w0_X-O-O.png,stimuli/mB-M_w0_B-O-O.png,stimuli/mB-M_w0_X-O-B.png,stimuli/mB-M_w0_X-O-X.png,stimuli/mW-L_w0_X-O-X.png,stimuli/m0_wW-R_X-O-X.png,stimuli/m0_none_X-O-X.png,stimuli/m0_none_X-O-X.png,stimuli/m0_wW-L_X-O-X.png,1,0,24,23,,,,,,,,,266.77306137396954,273.447768529295,274.1829052650137,274.1829052650137,274.1829052650137,275.07308299606666,275.07308299606666,left,0.3884473235812038,267.8333761069225,S2,T-A,2023-01-25_13h09.52.363,knowing_that_K_ONLY,2022.2.5,60.016904661962656,
Does Anna know that the book is here?,Does Anna think that the book is here?,Is the book here?,late,32,per_4,per_K,1,0,1,no,O-X-B,O-O-B,none,O-X-B,R,L,R,stimuli/blue-R.png,stimuli/blue-L.png,stimuli/blue-R.png,mB-M,m0,stimuli/m0_w0_O-X-B.png,stimuli/mW-R_w0_O-X-B.png,stimuli/mB-M_w0_O-X-B.png,stimuli/mB-M_w0_O-O-B.png,stimuli/mB-M_w0_O-X-B.png,stimuli/mW-L_w0_O-X-B.png,stimuli/m0_wW-R_O-X-B.png,stimuli/m0_none_O-X-B.png,stimuli/m0_none_O-X-B.png,stimuli/m0_wW-L_O-X-B.png,1,1,25,3,,,,,,,,,275.4897080118535,282.16442992410157,282.8790574306622,282.8790574306622,282.8790574306622,283.7899349476211,283.7899349476211,left,0.4150056060170755,276.5559681789018,S2,T-A,2023-01-25_13h09.52.363,knowing_that_K_ONLY,2022.2.5,60.016904661962656,
Does Anna know that the book is here?,Does Anna think that the book is here?,Is the book here?,early,37,per_9,per_K,1,0,1,switch,X-O-B,X-B-O,none,X-B-X,M,R,M,stimuli/blue-M.png,stimuli/blue-R.png,stimuli/blue-M.png,mB-R,m0,stimuli/m0_w0_X-O-B.png,stimuli/m0_wW-R_X-O-B.png,stimuli/m0_none_X-O-B.png,stimuli/mW-R_none_X-O-B.png,stimuli/mB-R_none_X-O-B.png,stimuli/mB-R_none_X-B-O.png,stimuli/mB-R_none_X-B-X.png,stimuli/mW-L_none_X-B-X.png,stimuli/m0_none_X-B-X.png,stimuli/m0_wW-L_X-B-X.png,1,2,26,8,,,,,,,,,284.22325677482877,290.9017494005384,291.6376259069657,291.6376259069657,291.6376259069657,292.52299288264476,292.52299288264476,left,0.2905733463121578,285.276737450622,S2,T-A,2023-01-25_13h09.52.363,knowing_that_K_ONLY,2022.2.5,60.016904661962656,
Does Anna know that the book is here?,Does Anna think that the book is here?,Is the book here?,early,31,per_3,per_K,1,0,1,no,O-B-X,O-B-O,none,O-B-X,M,R,M,stimuli/blue-M.png,stimuli/blue-R.png,stimuli/blue-M.png,mB-R,m0,stimuli/m0_w0_O-B-X.png,stimuli/m0_wW-R_O-B-X.png,stimuli/m0_none_O-B-X.png,stimuli/mW-R_none_O-B-X.png,stimuli/mB-R_none_O-B-X.png,stimuli/mB-R_none_O-B-O.png,stimuli/mB-R_none_O-B-X.png,stimuli/mW-L_none_O-B-X.png,stimuli/m0_none_O-B-X.png,stimuli/m0_wW-L_O-B-X.png,1,3,27,2,,,,,,,,,292.83972799789626,299.5096988240257,300.2298819895368,300.2298819895368,300.2298819895368,301.13977817143314,301.13977817143314,left,0.17861806123983115,293.89357310545165,S2,T-A,2023-01-25_13h09.52.363,knowing_that_K_ONLY,2022.2.5,60.016904661962656,
Does Anna know that the book is here?,Does Anna think that the book is here?,Is the book here?,early,48,mem_8,mem_K,0,1,0,switch,X-O-O,B-O-O,X-B-O,X-X-O,M,L,L,stimuli/blue-M.png,stimuli/blue-L.png,stimuli/blue-L.png,mB-R,m0,stimuli/m0_w0_X-O-O.png,stimuli/m0_wW-R_X-O-O.png,stimuli/m0_none_X-O-O.png,stimuli/mW-R_none_X-O-O.png,stimuli/mB-R_none_B-O-O.png,stimuli/mB-R_none_X-B-O.png,stimuli/mB-R_none_X-X-O.png,stimuli/mW-L_none_X-X-O.png,stimuli/m0_none_X-X-O.png,stimuli/m0_wW-L_X-X-O.png,1,4,28,19,,,,,,,,,301.3397065041354,308.01389043044765,308.7524122748291,308.7524122748291,308.7524122748291,309.6399469135795,309.6399469135795,right,0.6940493063302711,302.39567821181845,S2,T-A,2023-01-25_13h09.52.363,knowing_that_K_ONLY,2022.2.5,60.016904661962656,
Does Anna know that the book is here?,Does Anna think that the book is here?,Is the book here?,early,36,per_8,per_K,1,0,1,switch,O-X-B,B-X-O,none,B-X-X,L,M,L,stimuli/blue-L.png,stimuli/blue-M.png,stimuli/blue-L.png,mB-L,m0,stimuli/m0_w0_O-X-B.png,stimuli/m0_wW-R_O-X-B.png,stimuli/m0_none_O-X-B.png,stimuli/mW-R_none_O-X-B.png,stimuli/mB-L_none_O-X-B.png,stimuli/mB-L_none_B-X-O.png,stimuli/mB-L_none_B-X-X.png,stimuli/mW-L_none_B-X-X.png,stimuli/m0_none_B-X-X.png,stimuli/m0_wW-L_B-X-X.png,1,5,29,7,,,,,,,,,310.3564405286452,317.03168727387674,317.7721676180372,317.7721676180372,317.7721676180372,318.65652695286553,318.65652695286553,left,0.04516836197581142,311.41843337984756,S2,T-A,2023-01-25_13h09.52.363,knowing_that_K_ONLY,2022.2.5,60.016904661962656,
Does Anna know that the book is here?,Does Anna think that the book is here?,Is the book here?,early,30,per_2,per_K,1,0,1,no,X-X-B,O-X-B,none,X-X-B,R,L,R,stimuli/blue-R.png,stimuli/blue-L.png,stimuli/blue-R.png,mB-L,m0,stimuli/m0_w0_X-X-B.png,stimuli/m0_wW-R_X-X-B.png,stimuli/m0_none_X-X-B.png,stimuli/mW-R_none_X-X-B.png,stimuli/mB-L_none_X-X-B.png,stimuli/mB-L_none_O-X-B.png,stimuli/mB-L_none_X-X-B.png,stimuli/mW-L_none_X-X-B.png,stimuli/m0_none_X-X-B.png,stimuli/m0_wW-L_X-X-B.png,1,6,30,1,,,,,,,,,318.7231136969058,325.3965139025822,326.13452214200515,326.13452214200515,326.13452214200515,327.02336116391234,327.02336116391234,left,0.32607496285345405,319.7853041625349,S2,T-A,2023-01-25_13h09.52.363,knowing_that_K_ONLY,2022.2.5,60.016904661962656,
Does Anna know that the book is here?,Does Anna think that the book is here?,Is the book here?,late,39,per_11,per_K,1,1,1,show,X-X-O,X-B-O,none,X-B-O,M,M,M,stimuli/blue-M.png,stimuli/blue-M.png,stimuli/blue-M.png,mB-M,m0,stimuli/m0_w0_X-X-O.png,stimuli/mW-R_w0_X-X-O.png,stimuli/mB-M_w0_X-X-O.png,stimuli/mB-M_w0_X-B-O.png,stimuli/mB-M_w0_X-B-O.png,stimuli/mW-L_w0_X-B-O.png,stimuli/m0_wW-R_X-B-O.png,stimuli/m0_none_X-B-O.png,stimuli/m0_none_X-B-O.png,stimuli/m0_wW-L_X-B-O.png,1,7,31,10,,,,,,,,,327.373388207634,334.04399390215985,334.7611794883851,334.7611794883851,334.7611794883851,335.67244421399664,335.67244421399664,left,0.22924840613268316,328.42598763876595,S2,T-A,2023-01-25_13h09.52.363,knowing_that_K_ONLY,2022.2.5,60.016904661962656,
Does Anna know that the book is here?,Does Anna think that the book is here?,Is the book here?,early,47,mem_7,mem_K,0,1,0,switch,X-O-O,B-O-O,X-O-B,X-O-X,R,L,L,stimuli/blue-R.png,stimuli/blue-L.png,stimuli/blue-L.png,mB-M,m0,stimuli/m0_w0_X-O-O.png,stimuli/m0_wW-R_X-O-O.png,stimuli/m0_none_X-O-O.png,stimuli/mW-R_none_X-O-O.png,stimuli/mB-M_none_B-O-O.png,stimuli/mB-M_none_X-O-B.png,stimuli/mB-M_none_X-O-X.png,stimuli/mW-L_none_X-O-X.png,stimuli/m0_none_X-O-X.png,stimuli/m0_wW-L_X-O-X.png,1,8,32,18,,,,,,,,,335.9231203054078,342.5948465632973,343.3335640972946,343.3335640972946,343.3335640972946,344.2231794614345,344.2231794614345,right,0.6865508671617135,336.972668583272,S2,T-A,2023-01-25_13h09.52.363,knowing_that_K_ONLY,2022.2.5,60.016904661962656,
Does Anna know that the book is here?,Does Anna think that the book is here?,Is the book here?,early,35,per_7,per_K,1,0,1,switch,B-X-O,O-X-B,none,X-X-B,R,L,R,stimuli/blue-R.png,stimuli/blue-L.png,stimuli/blue-R.png,mB-R,m0,stimuli/m0_w0_B-X-O.png,stimuli/m0_wW-R_B-X-O.png,stimuli/m0_none_B-X-O.png,stimuli/mW-R_none_B-X-O.png,stimuli/mB-R_none_B-X-O.png,stimuli/mB-R_none_O-X-B.png,stimuli/mB-R_none_X-X-B.png,stimuli/mW-L_none_X-X-B.png,stimuli/m0_none_X-X-B.png,stimuli/m0_wW-L_X-X-B.png,1,9,33,6,,,,,,,,,344.9399887461914,351.61429393594153,352.3510366092669,352.3510366092669,352.3510366092669,353.2401479926193,353.2401479926193,left,0.30083229183219373,345.9981569892261,S2,T-A,2023-01-25_13h09.52.363,knowing_that_K_ONLY,2022.2.5,60.016904661962656,
Does Anna know that the book is here?,Does Anna think that the book is here?,Is the book here?,early,29,per_1,per_K,1,0,1,no,B-X-X,B-O-X,none,B-X-X,L,M,L,stimuli/blue-L.png,stimuli/blue-M.png,stimuli/blue-L.png,mB-M,m0,stimuli/m0_w0_B-X-X.png,stimuli/m0_wW-R_B-X-X.png,stimuli/m0_none_B-X-X.png,stimuli/mW-R_none_B-X-X.png,stimuli/mB-M_none_B-X-X.png,stimuli/mB-M_none_B-O-X.png,stimuli/mB-M_none_B-X-X.png,stimuli/mW-L_none_B-X-X.png,stimuli/m0_none_B-X-X.png,stimuli/m0_wW-L_B-X-X.png,1,10,34,0,,,,,,,,,353.573123096372,360.247840838274,360.9877434169175,360.9877434169175,360.9877434169175,361.87326918984763,361.87326918984763,left,0.3086255486123264,354.63330437545665,S2,T-A,2023-01-25_13h09.52.363,knowing_that_K_ONLY,2022.2.5,60.016904661962656,
Does Anna know that the book is here?,Does Anna think that the book is here?,Is the book here?,late,38,per_10,per_K,1,1,1,show,X-X-X,X-O-X,none,X-O-B,R,R,R,stimuli/blue-R.png,stimuli/blue-R.png,stimuli/blue-R.png,mB-R,m0,stimuli/m0_w0_X-X-X.png,stimuli/mW-R_w0_X-X-X.png,stimuli/mB-R_w0_X-X-X.png,stimuli/mB-R_w0_X-O-X.png,stimuli/mB-R_w0_X-O-B.png,stimuli/mW-L_w0_X-O-B.png,stimuli/m0_wW-R_X-O-B.png,stimuli/m0_none_X-O-B.png,stimuli/m0_none_X-O-B.png,stimuli/m0_wW-L_X-O-B.png,1,11,35,9,,,,,,,,,362.206532053533,368.87971571751405,369.6180367395282,369.6180367395282,369.6180367395282,370.50654341001064,370.50654341001064,left,0.4118550040293485,363.268051079358,S2,T-A,2023-01-25_13h09.52.363,knowing_that_K_ONLY,2022.2.5,60.016904661962656,
Does Anna know that the book is here?,Does Anna think that the book is here?,Is the book here?,late,40,per_12,per_K,1,1,1,show,O-X-X,O-B-X,none,O-B-X,M,M,M,stimuli/blue-M.png,stimuli/blue-M.png,stimuli/blue-M.png,mB-M,m0,stimuli/m0_w0_O-X-X.png,stimuli/mW-R_w0_O-X-X.png,stimuli/mB-M_w0_O-X-X.png,stimuli/mB-M_w0_O-B-X.png,stimuli/mB-M_w0_O-B-X.png,stimuli/mW-L_w0_O-B-X.png,stimuli/m0_wW-R_O-B-X.png,stimuli/m0_none_O-B-X.png,stimuli/m0_none_O-B-X.png,stimuli/m0_wW-L_O-B-X.png,1,12,36,11,,,,,,,,,370.93987742764875,377.61778202233836,378.35002447722945,378.35002447722945,378.35002447722945,379.2400427693501,379.2400427693501,left,0.173595255240798,371.99505835713353,S2,T-A,2023-01-25_13h09.52.363,knowing_that_K_ONLY,2022.2.5,60.016904661962656,
Does Anna know that the book is here?,Does Anna think that the book is here?,Is the book here?,early,46,mem_6,mem_K,0,1,0,switch,O-X-O,O-B-O,O-X-B,O-X-X,R,M,M,stimuli/blue-R.png,stimuli/blue-M.png,stimuli/blue-M.png,mB-L,m0,stimuli/m0_w0_O-X-O.png,stimuli/m0_wW-R_O-X-O.png,stimuli/m0_none_O-X-O.png,stimuli/mW-R_none_O-X-O.png,stimuli/mB-L_none_O-B-O.png,stimuli/mB-L_none_O-X-B.png,stimuli/mB-L_none_O-X-X.png,stimuli/mW-L_none_O-X-X.png,stimuli/m0_none_O-X-X.png,stimuli/m0_wW-L_O-X-X.png,1,13,37,17,,,,,,,,,379.44000446551945,386.11580010398757,386.84992214117665,386.84992214117665,386.84992214117665,387.739810187486,387.739810187486,right,0.6496450976701453,380.491992126219,S2,T-A,2023-01-25_13h09.52.363,knowing_that_K_ONLY,2022.2.5,60.016904661962656,
Does Anna know that the book is here?,Does Anna think that the book is here?,Is the book here?,late,33,per_5,per_K,1,0,1,no,X-B-O,O-B-O,none,X-B-O,M,R,M,stimuli/blue-M.png,stimuli/blue-R.png,stimuli/blue-M.png,mB-L,m0,stimuli/m0_w0_X-B-O.png,stimuli/mW-R_w0_X-B-O.png,stimuli/mB-L_w0_X-B-O.png,stimuli/mB-L_w0_O-B-O.png,stimuli/mB-L_w0_X-B-O.png,stimuli/mW-L_w0_X-B-O.png,stimuli/m0_wW-R_X-B-O.png,stimuli/m0_none_X-B-O.png,stimuli/m0_none_X-B-O.png,stimuli/m0_wW-L_X-B-O.png,1,14,38,4,,,,,,,,,388.40660186018795,395.0789171116194,395.81900864304043,395.81900864304043,395.81900864304043,396.7065477728611,396.7065477728611,left,0.4187840187223628,389.4643299620366,S2,T-A,2023-01-25_13h09.52.363,knowing_that_K_ONLY,2022.2.5,60.016904661962656,
Does Anna know that the book is here?,Does Anna think that the book is here?,Is the book here?,early,44,mem_4,mem_K,0,1,0,switch,O-X-O,O-B-O,O-X-B,O-X-X,R,M,M,stimuli/blue-R.png,stimuli/blue-M.png,stimuli/blue-M.png,mB-L,m0,stimuli/m0_w0_O-X-O.png,stimuli/m0_wW-R_O-X-O.png,stimuli/m0_none_O-X-O.png,stimuli/mW-R_none_O-X-O.png,stimuli/mB-L_none_O-B-O.png,stimuli/mB-L_none_O-X-B.png,stimuli/mB-L_none_O-X-X.png,stimuli/mW-L_none_O-X-X.png,stimuli/m0_none_O-X-X.png,stimuli/m0_wW-L_O-X-X.png,1,15,39,15,,,,,,,,,397.1566844668705,403.8321753429482,404.56760882097296,404.56760882097296,404.56760882097296,405.456784685608,405.456784685608,right,0.39645680133253336,398.2181396529777,S2,T-A,2023-01-25_13h09.52.363,knowing_that_K_ONLY,2022.2.5,60.016904661962656,
Does Anna know that the book is here?,Does Anna think that the book is here?,Is the book here?,late,50,mem_10,mem_K,1,1,1,show,O-O-X,O-O-B,O-B-X,O-X-X,M,M,M,stimuli/blue-M.png,stimuli/blue-M.png,stimuli/blue-M.png,mB-L,m0,stimuli/m0_w0_O-O-X.png,stimuli/mW-R_w0_O-O-X.png,stimuli/mB-L_w0_O-O-B.png,stimuli/mB-L_w0_O-B-X.png,stimuli/mB-L_w0_O-X-X.png,stimuli/mW-L_w0_O-X-X.png,stimuli/m0_wW-R_O-X-X.png,stimuli/m0_none_O-X-X.png,stimuli/m0_none_O-X-X.png,stimuli/m0_wW-L_O-X-X.png,1,16,40,21,,,,,,,,,405.87344017764553,412.54467368277255,413.28724052675534,413.28724052675534,413.28724052675534,414.17328343354166,414.17328343354166,left,0.3598962154937908,406.93561909440905,S2,T-A,2023-01-25_13h09.52.363,knowing_that_K_ONLY,2022.2.5,60.016904661962656,
Does Anna know that the book is here?,Does Anna think that the book is here?,Is the book here?,early,41,mem_1,mem_K,0,1,0,switch,O-O-X,O-O-B,O-B-X,O-X-X,M,R,R,stimuli/blue-M.png,stimuli/blue-R.png,stimuli/blue-R.png,mB-L,m0,stimuli/m0_w0_O-O-X.png,stimuli/m0_wW-R_O-O-X.png,stimuli/m0_none_O-O-X.png,stimuli/mW-R_none_O-O-X.png,stimuli/mB-L_none_O-O-B.png,stimuli/mB-L_none_O-B-X.png,stimuli/mB-L_none_O-X-X.png,stimuli/mW-L_none_O-X-X.png,stimuli/m0_none_O-X-X.png,stimuli/m0_wW-L_O-X-X.png,1,17,41,12,,,,,,,,,414.55661652085837,421.2285150497919,421.9677522839047,421.9677522839047,421.9677522839047,422.85659226821736,422.85659226821736,right,0.40497090155258775,415.61165886360686,S2,T-A,2023-01-25_13h09.52.363,knowing_that_K_ONLY,2022.2.5,60.016904661962656,
Does Anna know that the book is here?,Does Anna think that the book is here?,Is the book here?,early,49,mem_9,mem_K,0,1,0,switch,X-O-O,B-O-O,X-B-O,X-X-O,M,L,L,stimuli/blue-M.png,stimuli/blue-L.png,stimuli/blue-L.png,mB-R,m0,stimuli/m0_w0_X-O-O.png,stimuli/m0_wW-R_X-O-O.png,stimuli/m0_none_X-O-O.png,stimuli/mW-R_none_X-O-O.png,stimuli/mB-R_none_B-O-O.png,stimuli/mB-R_none_X-B-O.png,stimuli/mB-R_none_X-X-O.png,stimuli/mW-L_none_X-X-O.png,stimuli/m0_none_X-X-O.png,stimuli/m0_wW-L_X-X-O.png,1,18,42,20,,,,,,,,,423.29011267225724,429.96508962253574,430.7048183262814,430.7048183262814,430.7048183262814,431.5901378231356,431.5901378231356,right,0.4643222645390779,424.34118540398777,S2,T-A,2023-01-25_13h09.52.363,knowing_that_K_ONLY,2022.2.5,60.016904661962656,
Does Anna know that the book is here?,Does Anna think that the book is here?,Is the book here?,late,34,per_6,per_K,1,0,1,no,X-B-X,O-B-X,none,X-B-X,M,R,M,stimuli/blue-M.png,stimuli/blue-R.png,stimuli/blue-M.png,mB-L,m0,stimuli/m0_w0_X-B-X.png,stimuli/mW-R_w0_X-B-X.png,stimuli/mB-L_w0_X-B-X.png,stimuli/mB-L_w0_O-B-X.png,stimuli/mB-L_w0_X-B-X.png,stimuli/mW-L_w0_X-B-X.png,stimuli/m0_wW-R_X-B-X.png,stimuli/m0_none_X-B-X.png,stimuli/m0_none_X-B-X.png,stimuli/m0_wW-L_X-B-X.png,1,19,43,5,,,,,,,,,432.0734807912959,438.7265517379856,439.4879974925425,439.4879974925425,439.4879974925425,440.37336029775906,440.37336029775906,left,0.14482696389313787,433.13220049382653,S2,T-A,2023-01-25_13h09.52.363,knowing_that_K_ONLY,2022.2.5,60.016904661962656,
Does Anna know that the book is here?,Does Anna think that the book is here?,Is the book here?,early,43,mem_3,mem_K,0,1,0,switch,O-O-X,O-O-B,B-O-X,X-O-X,L,R,R,stimuli/blue-L.png,stimuli/blue-R.png,stimuli/blue-R.png,mB-M,m0,stimuli/m0_w0_O-O-X.png,stimuli/m0_wW-R_O-O-X.png,stimuli/m0_none_O-O-X.png,stimuli/mW-R_none_O-O-X.png,stimuli/mB-M_none_O-O-B.png,stimuli/mB-M_none_B-O-X.png,stimuli/mB-M_none_X-O-X.png,stimuli/mW-L_none_X-O-X.png,stimuli/m0_none_X-O-X.png,stimuli/m0_wW-L_X-O-X.png,1,20,44,14,,,,,,,,,440.5400448224973,447.2113319016062,447.9505909503205,447.9505909503205,447.9505909503205,448.84016076056287,448.84016076056287,right,0.12646486633457243,441.57889497629367,S2,T-A,2023-01-25_13h09.52.363,knowing_that_K_ONLY,2022.2.5,60.016904661962656,
Does Anna know that the book is here?,Does Anna think that the book is here?,Is the book here?,late,51,mem_11,mem_K,1,1,1,show,O-X-O,O-B-O,O-X-B,O-X-X,R,R,R,stimuli/blue-R.png,stimuli/blue-R.png,stimuli/blue-R.png,mB-L,m0,stimuli/m0_w0_O-X-O.png,stimuli/mW-R_w0_O-X-O.png,stimuli/mB-L_w0_O-B-O.png,stimuli/mB-L_w0_O-X-B.png,stimuli/mB-L_w0_O-X-X.png,stimuli/mW-L_w0_O-X-X.png,stimuli/m0_wW-R_O-X-X.png,stimuli/m0_none_O-X-X.png,stimuli/m0_none_O-X-X.png,stimuli/m0_wW-L_O-X-X.png,1,21,45,22,,,,,,,,,448.9899874308612,455.6656508987071,456.4047883632593,456.4047883632593,456.4047883632593,457.28995964943897,457.28995964943897,left,0.4354586948174983,450.05143555940595,S2,T-A,2023-01-25_13h09.52.363,knowing_that_K_ONLY,2022.2.5,60.016904661962656,
Does Anna know that the book is here?,Does Anna think that the book is here?,Is the book here?,early,45,mem_5,mem_K,0,1,0,switch,O-X-O,O-B-O,B-X-O,X-X-O,L,M,M,stimuli/blue-L.png,stimuli/blue-M.png,stimuli/blue-M.png,mB-R,m0,stimuli/m0_w0_O-X-O.png,stimuli/m0_wW-R_O-X-O.png,stimuli/m0_none_O-X-O.png,stimuli/mW-R_none_O-X-O.png,stimuli/mB-R_none_O-B-O.png,stimuli/mB-R_none_B-X-O.png,stimuli/mB-R_none_X-X-O.png,stimuli/mW-L_none_X-X-O.png,stimuli/m0_none_X-X-O.png,stimuli/m0_wW-L_X-X-O.png,1,22,46,16,,,,,,,,,457.75649095873814,464.4305802483577,465.166746118688,465.166746118688,465.166746118688,466.056563909282,466.056563909282,right,1.093495023669675,458.81161959737074,S2,T-A,2023-01-25_13h09.52.363,knowing_that_K_ONLY,2022.2.5,60.016904661962656,
Does Anna know that the book is here?,Does Anna think that the book is here?,Is the book here?,early,42,mem_2,mem_K,0,1,0,switch,O-O-X,O-O-B,B-O-X,X-O-X,L,R,R,stimuli/blue-L.png,stimuli/blue-R.png,stimuli/blue-R.png,mB-M,m0,stimuli/m0_w0_O-O-X.png,stimuli/m0_wW-R_O-O-X.png,stimuli/m0_none_O-O-X.png,stimuli/mW-R_none_O-O-X.png,stimuli/mB-M_none_O-O-B.png,stimuli/mB-M_none_B-O-X.png,stimuli/mB-M_none_X-O-X.png,stimuli/mW-L_none_X-O-X.png,stimuli/m0_none_X-O-X.png,stimuli/m0_wW-L_X-O-X.png,1,23,47,13,,,,,,,,,467.1733517644461,473.8477451748913,474.5842530208174,474.5842530208174,474.5842530208174,475.47339969233144,475.47339969233144,right,0.987796992645599,468.2259162281407,S2,T-A,2023-01-25_13h09.52.363,knowing_that_K_ONLY,2022.2.5,60.016904661962656,
Does Anna know that the book is here?,Does Anna think that the book is here?,Is the book here?,early,29,per_1,per_K,1,0,1,no,B-X-X,B-O-X,none,B-X-X,L,M,L,stimuli/blue-L.png,stimuli/blue-M.png,stimuli/blue-L.png,mB-M,m0,stimuli/m0_w0_B-X-X.png,stimuli/m0_wW-R_B-X-X.png,stimuli/m0_none_B-X-X.png,stimuli/mW-R_none_B-X-X.png,stimuli/mB-M_none_B-X-X.png,stimuli/mB-M_none_B-O-X.png,stimuli/mB-M_none_B-X-X.png,stimuli/mW-L_none_B-X-X.png,stimuli/m0_none_B-X-X.png,stimuli/m0_wW-L_B-X-X.png,2,0,48,0,,,,,,,,,476.49020429339726,483.1632625235943,483.9021455916809,483.9021455916809,483.9021455916809,484.78986148384865,484.78986148384865,left,0.5287134357495233,477.546682869317,S2,T-A,2023-01-25_13h09.52.363,knowing_that_K_ONLY,2022.2.5,60.016904661962656,
Does Anna know that the book is here?,Does Anna think that the book is here?,Is the book here?,late,38,per_10,per_K,1,1,1,show,X-X-X,X-O-X,none,X-O-B,R,R,R,stimuli/blue-R.png,stimuli/blue-R.png,stimuli/blue-R.png,mB-R,m0,stimuli/m0_w0_X-X-X.png,stimuli/mW-R_w0_X-X-X.png,stimuli/mB-R_w0_X-X-X.png,stimuli/mB-R_w0_X-O-X.png,stimuli/mB-R_w0_X-O-B.png,stimuli/mW-L_w0_X-O-B.png,stimuli/m0_wW-R_X-O-B.png,stimuli/m0_none_X-O-B.png,stimuli/m0_none_X-O-B.png,stimuli/m0_wW-L_X-O-B.png,2,1,49,9,,,,,,,,,485.340007416904,492.01479830173776,492.75038223620504,492.75038223620504,492.75038223620504,493.6399738609325,493.6399738609325,left,0.6700430084019899,486.39805054687895,S2,T-A,2023-01-25_13h09.52.363,knowing_that_K_ONLY,2022.2.5,60.016904661962656,
Does Anna know that the book is here?,Does Anna think that the book is here?,Is the book here?,early,46,mem_6,mem_K,0,1,0,switch,O-X-O,O-B-O,O-X-B,O-X-X,R,M,M,stimuli/blue-R.png,stimuli/blue-M.png,stimuli/blue-M.png,mB-L,m0,stimuli/m0_w0_O-X-O.png,stimuli/m0_wW-R_O-X-O.png,stimuli/m0_none_O-X-O.png,stimuli/mW-R_none_O-X-O.png,stimuli/mB-L_none_O-B-O.png,stimuli/mB-L_none_O-X-B.png,stimuli/mB-L_none_O-X-X.png,stimuli/mW-L_none_O-X-X.png,stimuli/m0_none_O-X-X.png,stimuli/m0_wW-L_O-X-X.png,2,2,50,17,,,,,,,,,494.3401479284512,501.01081489620265,501.7236683644587,501.7236683644587,501.7236683644587,502.6400819714181,502.6400819714181,right,0.221726548159495,495.3990350899985,S2,T-A,2023-01-25_13h09.52.363,knowing_that_K_ONLY,2022.2.5,60.016904661962656,
Does Anna know that the book is here?,Does Anna think that the book is here?,Is the book here?,late,39,per_11,per_K,1,1,1,show,X-X-O,X-B-O,none,X-B-O,M,M,M,stimuli/blue-M.png,stimuli/blue-M.png,stimuli/blue-M.png,mB-M,m0,stimuli/m0_w0_X-X-O.png,stimuli/mW-R_w0_X-X-O.png,stimuli/mB-M_w0_X-X-O.png,stimuli/mB-M_w0_X-B-O.png,stimuli/mB-M_w0_X-B-O.png,stimuli/mW-L_w0_X-B-O.png,stimuli/m0_wW-R_X-B-O.png,stimuli/m0_none_X-B-O.png,stimuli/m0_none_X-B-O.png,stimuli/m0_wW-L_X-B-O.png,2,3,51,10,,,,,,,,,502.88987938454375,509.5425345712574,510.30532545095775,510.30532545095775,510.30532545095775,511.1901249268558,511.1901249268558,left,0.5124179483391345,503.94240599358454,S2,T-A,2023-01-25_13h09.52.363,knowing_that_K_ONLY,2022.2.5,60.016904661962656,
Does Anna know that the book is here?,Does Anna think that the book is here?,Is the book here?,early,37,per_9,per_K,1,0,1,switch,X-O-B,X-B-O,none,X-B-X,M,R,M,stimuli/blue-M.png,stimuli/blue-R.png,stimuli/blue-M.png,mB-R,m0,stimuli/m0_w0_X-O-B.png,stimuli/m0_wW-R_X-O-B.png,stimuli/m0_none_X-O-B.png,stimuli/mW-R_none_X-O-B.png,stimuli/mB-R_none_X-O-B.png,stimuli/mB-R_none_X-B-O.png,stimuli/mB-R_none_X-B-X.png,stimuli/mW-L_none_X-B-X.png,stimuli/m0_none_X-B-X.png,stimuli/m0_wW-L_X-B-X.png,2,4,52,8,,,,,,,,,511.7236811965704,518.3960609292844,519.1335927769542,519.1335927769542,519.1335927769542,520.0235850841273,520.0235850841273,left,0.13530169404111803,512.7780357386218,S2,T-A,2023-01-25_13h09.52.363,knowing_that_K_ONLY,2022.2.5,60.016904661962656,
Does Anna know that the book is here?,Does Anna think that the book is here?,Is the book here?,early,48,mem_8,mem_K,0,1,0,switch,X-O-O,B-O-O,X-B-O,X-X-O,M,L,L,stimuli/blue-M.png,stimuli/blue-L.png,stimuli/blue-L.png,mB-R,m0,stimuli/m0_w0_X-O-O.png,stimuli/m0_wW-R_X-O-O.png,stimuli/m0_none_X-O-O.png,stimuli/mW-R_none_X-O-O.png,stimuli/mB-R_none_B-O-O.png,stimuli/mB-R_none_X-B-O.png,stimuli/mB-R_none_X-X-O.png,stimuli/mW-L_none_X-X-O.png,stimuli/m0_none_X-X-O.png,stimuli/m0_wW-L_X-X-O.png,2,5,53,19,,,,,,,,,520.1903177292552,526.8656773969997,527.6009328296641,527.6009328296641,527.6009328296641,528.4901674011489,528.4901674011489,right,1.0117298268014565,521.2469987315126,S2,T-A,2023-01-25_13h09.52.363,knowing_that_K_ONLY,2022.2.5,60.016904661962656,
Does Anna know that the book is here?,Does Anna think that the book is here?,Is the book here?,early,30,per_2,per_K,1,0,1,no,X-X-B,O-X-B,none,X-X-B,R,L,R,stimuli/blue-R.png,stimuli/blue-L.png,stimuli/blue-R.png,mB-L,m0,stimuli/m0_w0_X-X-B.png,stimuli/m0_wW-R_X-X-B.png,stimuli/m0_none_X-X-B.png,stimuli/mW-R_none_X-X-B.png,stimuli/mB-L_none_X-X-B.png,stimuli/mB-L_none_O-X-B.png,stimuli/mB-L_none_X-X-B.png,stimuli/mW-L_none_X-X-B.png,stimuli/m0_none_X-X-B.png,stimuli/m0_wW-L_X-X-B.png,2,6,54,1,,,,,,,,,529.5234509886941,536.199258817709,536.9141856329516,536.9141856329516,536.9141856329516,537.8234790267888,537.8234790267888,left,0.16645258595235646,530.5849549367558,S2,T-A,2023-01-25_13h09.52.363,knowing_that_K_ONLY,2022.2.5,60.016904661962656,
Does Anna know that the book is here?,Does Anna think that the book is here?,Is the book here?,late,40,per_12,per_K,1,1,1,show,O-X-X,O-B-X,none,O-B-X,M,M,M,stimuli/blue-M.png,stimuli/blue-M.png,stimuli/blue-M.png,mB-M,m0,stimuli/m0_w0_O-X-X.png,stimuli/mW-R_w0_O-X-X.png,stimuli/mB-M_w0_O-X-X.png,stimuli/mB-M_w0_O-B-X.png,stimuli/mB-M_w0_O-B-X.png,stimuli/mW-L_w0_O-B-X.png,stimuli/m0_wW-R_O-B-X.png,stimuli/m0_none_O-B-X.png,stimuli/m0_none_O-B-X.png,stimuli/m0_wW-L_O-B-X.png,2,7,55,11,,,,,,,,,538.006821225048,544.6794614493847,545.4186730193906,545.4186730193906,545.4186730193906,546.3068900051294,546.3068900051294,left,0.18656690733041614,539.0669360980392,S2,T-A,2023-01-25_13h09.52.363,knowing_that_K_ONLY,2022.2.5,60.016904661962656,
Does Anna know that the book is here?,Does Anna think that the book is here?,Is the book here?,late,51,mem_11,mem_K,1,1,1,show,O-X-O,O-B-O,O-X-B,O-X-X,R,R,R,stimuli/blue-R.png,stimuli/blue-R.png,stimuli/blue-R.png,mB-L,m0,stimuli/m0_w0_O-X-O.png,stimuli/mW-R_w0_O-X-O.png,stimuli/mB-L_w0_O-B-O.png,stimuli/mB-L_w0_O-X-B.png,stimuli/mB-L_w0_O-X-X.png,stimuli/mW-L_w0_O-X-X.png,stimuli/m0_wW-R_O-X-X.png,stimuli/m0_none_O-X-X.png,stimuli/m0_none_O-X-X.png,stimuli/m0_wW-L_O-X-X.png,2,8,56,22,,,,,,,,,546.5233909985982,553.1997384175193,553.9370399289764,553.9370399289764,553.9370399289764,554.8235826460877,554.8235826460877,left,0.07010306266602129,547.5775861017173,S2,T-A,2023-01-25_13h09.52.363,knowing_that_K_ONLY,2022.2.5,60.016904661962656,
Does Anna know that the book is here?,Does Anna think that the book is here?,Is the book here?,early,43,mem_3,mem_K,0,1,0,switch,O-O-X,O-O-B,B-O-X,X-O-X,L,R,R,stimuli/blue-L.png,stimuli/blue-R.png,stimuli/blue-R.png,mB-M,m0,stimuli/m0_w0_O-O-X.png,stimuli/m0_wW-R_O-O-X.png,stimuli/m0_none_O-O-X.png,stimuli/mW-R_none_O-O-X.png,stimuli/mB-M_none_O-O-B.png,stimuli/mB-M_none_B-O-X.png,stimuli/mB-M_none_X-O-X.png,stimuli/mW-L_none_X-O-X.png,stimuli/m0_none_X-O-X.png,stimuli/m0_wW-L_X-O-X.png,2,9,57,14,,,,,,,,,554.9236602161545,561.5751925937366,562.3342284794198,562.3342284794198,562.3342284794198,563.2231852358673,563.2231852358673,right,0.36717233865056187,555.976863397751,S2,T-A,2023-01-25_13h09.52.363,knowing_that_K_ONLY,2022.2.5,60.016904661962656,
Does Anna know that the book is here?,Does Anna think that the book is here?,Is the book here?,late,33,per_5,per_K,1,0,1,no,X-B-O,O-B-O,none,X-B-O,M,R,M,stimuli/blue-M.png,stimuli/blue-R.png,stimuli/blue-M.png,mB-L,m0,stimuli/m0_w0_X-B-O.png,stimuli/mW-R_w0_X-B-O.png,stimuli/mB-L_w0_X-B-O.png,stimuli/mB-L_w0_O-B-O.png,stimuli/mB-L_w0_X-B-O.png,stimuli/mW-L_w0_X-B-O.png,stimuli/m0_wW-R_X-B-O.png,stimuli/m0_none_X-B-O.png,stimuli/m0_none_X-B-O.png,stimuli/m0_wW-L_X-B-O.png,2,10,58,4,,,,,,,,,563.6064711651998,570.2776879885932,571.0200459902408,571.0200459902408,571.0200459902408,571.9064761055633,571.9064761055633,left,0.37122984952293336,564.6581239079824,S2,T-A,2023-01-25_13h09.52.363,knowing_that_K_ONLY,2022.2.5,60.016904661962656,
Does Anna know that the book is here?,Does Anna think that the book is here?,Is the book here?,early,44,mem_4,mem_K,0,1,0,switch,O-X-O,O-B-O,O-X-B,O-X-X,R,M,M,stimuli/blue-R.png,stimuli/blue-M.png,stimuli/blue-M.png,mB-L,m0,stimuli/m0_w0_O-X-O.png,stimuli/m0_wW-R_O-X-O.png,stimuli/m0_none_O-X-O.png,stimuli/mW-R_none_O-X-O.png,stimuli/mB-L_none_O-B-O.png,stimuli/mB-L_none_O-X-B.png,stimuli/mB-L_none_O-X-X.png,stimuli/mW-L_none_O-X-X.png,stimuli/m0_none_O-X-X.png,stimuli/m0_wW-L_O-X-X.png,2,11,59,15,,,,,,,,,572.3065679193242,578.9840484128799,579.7208440186223,579.7208440186223,579.7208440186223,580.6070409106323,580.6070409106323,right,0.43968366470653564,573.370481736376,S2,T-A,2023-01-25_13h09.52.363,knowing_that_K_ONLY,2022.2.5,60.016904661962656,
Does Anna know that the book is here?,Does Anna think that the book is here?,Is the book here?,early,31,per_3,per_K,1,0,1,no,O-B-X,O-B-O,none,O-B-X,M,R,M,stimuli/blue-M.png,stimuli/blue-R.png,stimuli/blue-M.png,mB-R,m0,stimuli/m0_w0_O-B-X.png,stimuli/m0_wW-R_O-B-X.png,stimuli/m0_none_O-B-X.png,stimuli/mW-R_none_O-B-X.png,stimuli/mB-R_none_O-B-X.png,stimuli/mB-R_none_O-B-O.png,stimuli/mB-R_none_O-B-X.png,stimuli/mW-L_none_O-B-X.png,stimuli/m0_none_O-B-X.png,stimuli/m0_wW-L_O-B-X.png,2,12,60,2,,,,,,,,,581.0736652527703,587.751133235055,588.48957519955,588.48957519955,588.48957519955,589.3735402680468,589.3735402680468,left,0.031866604229435325,582.137521646102,S2,T-A,2023-01-25_13h09.52.363,knowing_that_K_ONLY,2022.2.5,60.016904661962656,
Does Anna know that the book is here?,Does Anna think that the book is here?,Is the book here?,early,36,per_8,per_K,1,0,1,switch,O-X-B,B-X-O,none,B-X-X,L,M,L,stimuli/blue-L.png,stimuli/blue-M.png,stimuli/blue-L.png,mB-L,m0,stimuli/m0_w0_O-X-B.png,stimuli/m0_wW-R_O-X-B.png,stimuli/m0_none_O-X-B.png,stimuli/mW-R_none_O-X-B.png,stimuli/mB-L_none_O-X-B.png,stimuli/mB-L_none_B-X-O.png,stimuli/mB-L_none_B-X-X.png,stimuli/mW-L_none_B-X-X.png,stimuli/m0_none_B-X-X.png,stimuli/m0_wW-L_B-X-X.png,2,13,61,7,,,,,,,,,589.4235607673181,596.0944449184462,596.8350686613703,596.8350686613703,596.8350686613703,597.7235823894152,597.7235823894152,left,0.14727147947996855,590.4784170446219,S2,T-A,2023-01-25_13h09.52.363,knowing_that_K_ONLY,2022.2.5,60.016904661962656,
Does Anna know that the book is here?,Does Anna think that the book is here?,Is the book here?,late,50,mem_10,mem_K,1,1,1,show,O-O-X,O-O-B,O-B-X,O-X-X,M,M,M,stimuli/blue-M.png,stimuli/blue-M.png,stimuli/blue-M.png,mB-L,m0,stimuli/m0_w0_O-O-X.png,stimuli/mW-R_w0_O-O-X.png,stimuli/mB-L_w0_O-O-B.png,stimuli/mB-L_w0_O-B-X.png,stimuli/mB-L_w0_O-X-X.png,stimuli/mW-L_w0_O-X-X.png,stimuli/m0_wW-R_O-X-X.png,stimuli/m0_none_O-X-X.png,stimuli/m0_none_O-X-X.png,stimuli/m0_wW-L_O-X-X.png,2,14,62,21,,,,,,,,,597.8902313050348,604.5629424267681,605.3024231500458,605.3024231500458,605.3024231500458,606.1901537991362,606.1901537991362,left,0.07170418824534863,598.9424836278195,S2,T-A,2023-01-25_13h09.52.363,knowing_that_K_ONLY,2022.2.5,60.016904661962656,
Does Anna know that the book is here?,Does Anna think that the book is here?,Is the book here?,early,42,mem_2,mem_K,0,1,0,switch,O-O-X,O-O-B,B-O-X,X-O-X,L,R,R,stimuli/blue-L.png,stimuli/blue-R.png,stimuli/blue-R.png,mB-M,m0,stimuli/m0_w0_O-O-X.png,stimuli/m0_wW-R_O-O-X.png,stimuli/m0_none_O-O-X.png,stimuli/mW-R_none_O-O-X.png,stimuli/mB-M_none_O-O-B.png,stimuli/mB-M_none_B-O-X.png,stimuli/mB-M_none_X-O-X.png,stimuli/mW-L_none_X-O-X.png,stimuli/m0_none_X-O-X.png,stimuli/m0_wW-L_X-O-X.png,2,15,63,13,,,,,,,,,606.2903170234058,612.9665906578302,613.7015477439854,613.7015477439854,613.7015477439854,614.5902606905438,614.5902606905438,right,0.31179187004454434,607.34603305161,S2,T-A,2023-01-25_13h09.52.363,knowing_that_K_ONLY,2022.2.5,60.016904661962656,
Does Anna know that the book is here?,Does Anna think that the book is here?,Is the book here?,early,35,per_7,per_K,1,0,1,switch,B-X-O,O-X-B,none,X-X-B,R,L,R,stimuli/blue-R.png,stimuli/blue-L.png,stimuli/blue-R.png,mB-R,m0,stimuli/m0_w0_B-X-O.png,stimuli/m0_wW-R_B-X-O.png,stimuli/m0_none_B-X-O.png,stimuli/mW-R_none_B-X-O.png,stimuli/mB-R_none_B-X-O.png,stimuli/mB-R_none_O-X-B.png,stimuli/mB-R_none_X-X-B.png,stimuli/mW-L_none_X-X-B.png,stimuli/m0_none_X-X-B.png,stimuli/m0_wW-L_X-X-B.png,2,16,64,6,,,,,,,,,614.923608246143,621.5733152570901,622.3124710074626,622.3124710074626,622.3124710074626,623.223665798083,623.223665798083,left,0.39025376294739544,615.9868987437803,S2,T-A,2023-01-25_13h09.52.363,knowing_that_K_ONLY,2022.2.5,60.016904661962656,
Does Anna know that the book is here?,Does Anna think that the book is here?,Is the book here?,late,34,per_6,per_K,1,0,1,no,X-B-X,O-B-X,none,X-B-X,M,R,M,stimuli/blue-M.png,stimuli/blue-R.png,stimuli/blue-M.png,mB-L,m0,stimuli/m0_w0_X-B-X.png,stimuli/mW-R_w0_X-B-X.png,stimuli/mB-L_w0_X-B-X.png,stimuli/mB-L_w0_O-B-X.png,stimuli/mB-L_w0_X-B-X.png,stimuli/mW-L_w0_X-B-X.png,stimuli/m0_wW-R_X-B-X.png,stimuli/m0_none_X-B-X.png,stimuli/m0_none_X-B-X.png,stimuli/m0_wW-L_X-B-X.png,2,17,65,5,,,,,,,,,623.6401031443384,630.316102171666,631.0543914342998,631.0543914342998,631.0543914342998,631.9402662403882,631.9402662403882,left,0.4415802494622767,624.6981042491971,S2,T-A,2023-01-25_13h09.52.363,knowing_that_K_ONLY,2022.2.5,60.016904661962656,
Does Anna know that the book is here?,Does Anna think that the book is here?,Is the book here?,early,49,mem_9,mem_K,0,1,0,switch,X-O-O,B-O-O,X-B-O,X-X-O,M,L,L,stimuli/blue-M.png,stimuli/blue-L.png,stimuli/blue-L.png,mB-R,m0,stimuli/m0_w0_X-O-O.png,stimuli/m0_wW-R_X-O-O.png,stimuli/m0_none_X-O-O.png,stimuli/mW-R_none_X-O-O.png,stimuli/mB-R_none_B-O-O.png,stimuli/mB-R_none_X-B-O.png,stimuli/mB-R_none_X-X-O.png,stimuli/mW-L_none_X-X-O.png,stimuli/m0_none_X-X-O.png,stimuli/m0_wW-L_X-X-O.png,2,18,66,20,,,,,,,,,632.4068710135762,639.0807652552612,639.8175178734818,639.8175178734818,639.8175178734818,640.7070809467696,640.7070809467696,right,0.4432118512922898,633.4602945864899,S2,T-A,2023-01-25_13h09.52.363,knowing_that_K_ONLY,2022.2.5,60.016904661962656,
Does Anna know that the book is here?,Does Anna think that the book is here?,Is the book here?,early,47,mem_7,mem_K,0,1,0,switch,X-O-O,B-O-O,X-O-B,X-O-X,R,L,L,stimuli/blue-R.png,stimuli/blue-L.png,stimuli/blue-L.png,mB-M,m0,stimuli/m0_w0_X-O-O.png,stimuli/m0_wW-R_X-O-O.png,stimuli/m0_none_X-O-O.png,stimuli/mW-R_none_X-O-O.png,stimuli/mB-M_none_B-O-O.png,stimuli/mB-M_none_X-O-B.png,stimuli/mB-M_none_X-O-X.png,stimuli/mW-L_none_X-O-X.png,stimuli/m0_none_X-O-X.png,stimuli/m0_wW-L_X-O-X.png,2,19,67,18,,,,,,,,,641.1736446572468,647.8475565429544,648.5855991083663,648.5855991083663,648.5855991083663,649.4736444647424,649.4736444647424,right,0.9883250336861238,642.227245633956,S2,T-A,2023-01-25_13h09.52.363,knowing_that_K_ONLY,2022.2.5,60.016904661962656,
Does Anna know that the book is here?,Does Anna think that the book is here?,Is the book here?,early,45,mem_5,mem_K,0,1,0,switch,O-X-O,O-B-O,B-X-O,X-X-O,L,M,M,stimuli/blue-L.png,stimuli/blue-M.png,stimuli/blue-M.png,mB-R,m0,stimuli/m0_w0_O-X-O.png,stimuli/m0_wW-R_O-X-O.png,stimuli/m0_none_O-X-O.png,stimuli/mW-R_none_O-X-O.png,stimuli/mB-R_none_O-B-O.png,stimuli/mB-R_none_B-X-O.png,stimuli/mB-R_none_X-X-O.png,stimuli/mW-L_none_X-X-O.png,stimuli/m0_none_X-X-O.png,stimuli/m0_wW-L_X-X-O.png,2,20,68,16,,,,,,,,,650.4901138271671,657.1641825853148,657.9029706958681,657.9029706958681,657.9029706958681,658.7903593693627,658.7903593693627,right,0.08017626334913075,651.5435560066253,S2,T-A,2023-01-25_13h09.52.363,knowing_that_K_ONLY,2022.2.5,60.016904661962656,
Does Anna know that the book is here?,Does Anna think that the book is here?,Is the book here?,late,32,per_4,per_K,1,0,1,no,O-X-B,O-O-B,none,O-X-B,R,L,R,stimuli/blue-R.png,stimuli/blue-L.png,stimuli/blue-R.png,mB-M,m0,stimuli/m0_w0_O-X-B.png,stimuli/mW-R_w0_O-X-B.png,stimuli/mB-M_w0_O-X-B.png,stimuli/mB-M_w0_O-O-B.png,stimuli/mB-M_w0_O-X-B.png,stimuli/mW-L_w0_O-X-B.png,stimuli/m0_wW-R_O-X-B.png,stimuli/m0_none_O-X-B.png,stimuli/m0_none_O-X-B.png,stimuli/m0_wW-L_O-X-B.png,2,21,69,3,,,,,,,,,658.8904279569397,665.5653769974597,666.3040265212767,666.3040265212767,666.3040265212767,667.1904826217797,667.1904826217797,left,0.0481640164507553,659.952361780568,S2,T-A,2023-01-25_13h09.52.363,knowing_that_K_ONLY,2022.2.5,60.016904661962656,
Does Anna know that the book is here?,Does Anna think that the book is here?,Is the book here?,late,52,mem_12,mem_K,1,1,1,show,X-O-O,B-O-O,X-O-B,X-O-X,R,R,R,stimuli/blue-R.png,stimuli/blue-R.png,stimuli/blue-R.png,mB-M,m0,stimuli/m0_w0_X-O-O.png,stimuli/mW-R_w0_X-O-O.png,stimuli/mB-M_w0_B-O-O.png,stimuli/mB-M_w0_X-O-B.png,stimuli/mB-M_w0_X-O-X.png,stimuli/mW-L_w0_X-O-X.png,stimuli/m0_wW-R_X-O-X.png,stimuli/m0_none_X-O-X.png,stimuli/m0_none_X-O-X.png,stimuli/m0_wW-L_X-O-X.png,2,22,70,23,,,,,,,,,667.257012583781,673.933524574386,674.6720428899862,674.6720428899862,674.6720428899862,675.5571692637168,675.5571692637168,left,0.42579997098073363,668.3186079605948,S2,T-A,2023-01-25_13h09.52.363,knowing_that_K_ONLY,2022.2.5,60.016904661962656,
Does Anna know that the book is here?,Does Anna think that the book is here?,Is the book here?,early,41,mem_1,mem_K,0,1,0,switch,O-O-X,O-O-B,O-B-X,O-X-X,M,R,R,stimuli/blue-M.png,stimuli/blue-R.png,stimuli/blue-R.png,mB-L,m0,stimuli/m0_w0_O-O-X.png,stimuli/m0_wW-R_O-O-X.png,stimuli/m0_none_O-O-X.png,stimuli/mW-R_none_O-O-X.png,stimuli/mB-L_none_O-O-B.png,stimuli/mB-L_none_O-B-X.png,stimuli/mB-L_none_O-X-X.png,stimuli/mW-L_none_O-X-X.png,stimuli/m0_none_O-X-X.png,stimuli/m0_wW-L_O-X-X.png,2,23,71,12,,,,,,,,,676.0068542676745,682.6653641011799,683.4201548064593,683.4201548064593,683.4201548064593,684.3070430279477,684.3070430279477,right,0.8278583044884726,677.1180922384374,S2,T-A,2023-01-25_13h09.52.363,knowing_that_K_ONLY,2022.2.5,60.016904661962656,
