K_text,B_text,T_text,Anna_exit,trial_num,trial_code,cond,K_hit,B_hit,T_hit,book_move,start_shelf,mid_shelf,end_shelf,rectangle,rectangle_path,Todd_mid,Todd_final,frame_1,frame_2,frame_3,frame_4,frame_5,frame_6,frame_7,frame_8,frame_9,frame_10,trials.thisRepN,trials.thisTrialN,trials.thisN,trials.thisIndex,frames.thisRepN,frames.thisTrialN,frames.thisN,frames.thisIndex,sessionInst.started,startSession.started,startSession.keys,startSession.rt,crossText.started,movingImage.started,staticImage.started,promptText3.started,rectImage.started,respText.started,keyResp.started,keyResp.keys,keyResp.rt,crossText.stopped,subject,session,date,expName,psychopyVersion,frameRate,
,,,,,,,,,,,,,,,,,,,,,,,,,,,,,,,,,,,,13.117127905832604,13.117127905832604,left,20.346548193250783,,,,,,,,,,,S2,T-M,2023-01-25_13h44.39.511,knowing_that_K_ONLY,2022.2.5,60.01158960467836,
Does Anna know that the book is here?,Does Anna think that the book is here?,Is the book here?,late,15,mem_6,mem_K,1,1,1,no,X-B-O,X-B-X,X-X-X,M,stimuli/blue-M.png,mB-R,m0,stimuli/m0_w0_X-B-O.png,stimuli/mW-R_w0_X-B-O.png,stimuli/mB-R_w0_X-B-O.png,stimuli/mB-R_w0_X-B-X.png,stimuli/mB-R_w0_X-X-X.png,stimuli/mW-L_w0_X-X-X.png,stimuli/m0_wW-R_X-X-X.png,stimuli/m0_none_X-X-X.png,stimuli/m0_none_X-X-X.png,stimuli/m0_wW-L_X-X-X.png,0,0,0,14,,,,,,,,,33.514978592749685,40.15231866471004,40.91143860062584,40.91143860062584,40.91143860062584,41.78000610799063,41.78000610799063,left,0.08331428514793515,,S2,T-M,2023-01-25_13h44.39.511,knowing_that_K_ONLY,2022.2.5,60.01158960467836,
Does Anna know that the book is here?,Does Anna think that the book is here?,Is the book here?,early,22,no_4,no_K,0,0,0,no,O-X-X,O-O-X,O-X-X,M,stimuli/blue-M.png,mB-M,m0,stimuli/m0_w0_O-X-X.png,stimuli/m0_wW-R_O-X-X.png,stimuli/m0_none_O-X-X.png,stimuli/mW-R_none_O-X-X.png,stimuli/mB-M_none_O-X-X.png,stimuli/mB-M_none_O-O-X.png,stimuli/mB-M_none_O-X-X.png,stimuli/mW-L_none_O-X-X.png,stimuli/m0_none_O-X-X.png,stimuli/m0_wW-L_O-X-X.png,0,1,1,21,,,,,,,,,41.87999802385457,48.555768318939954,49.29175646463409,49.29175646463409,49.29175646463409,50.18021180666983,50.18021180666983,left,0.01233960350509733,42.93855764588807,S2,T-M,2023-01-25_13h44.39.511,knowing_that_K_ONLY,2022.2.5,60.01158960467836,
Does Anna know that the book is here?,Does Anna think that the book is here?,Is the book here?,late,11,mem_2,mem_K,1,1,1,no,O-B-O,O-B-X,O-X-X,M,stimuli/blue-M.png,mB-L,m0,stimuli/m0_w0_O-B-O.png,stimuli/mW-R_w0_O-B-O.png,stimuli/mB-L_w0_O-B-O.png,stimuli/mB-L_w0_O-B-X.png,stimuli/mB-L_w0_O-X-X.png,stimuli/mW-L_w0_O-X-X.png,stimuli/m0_wW-R_O-X-X.png,stimuli/m0_none_O-X-X.png,stimuli/m0_none_O-X-X.png,stimuli/m0_wW-L_O-X-X.png,0,2,2,10,,,,,,,,,50.2133946622489,56.86511021805927,57.60382197762374,57.60382197762374,57.60382197762374,58.51355839986354,58.51355839986354,left,0.21472945425193757,51.264557539485395,S2,T-M,2023-01-25_13h44.39.511,knowing_that_K_ONLY,2022.2.5,60.01158960467836,
Does Anna know that the book is here?,Does Anna think that the book is here?,Is the book here?,early,9,per_9,per_K,1,1,1,switch,X-O-B,X-B-O,X-B-X,M,stimuli/blue-M.png,mB-R,m0,stimuli/m0_w0_X-O-B.png,stimuli/m0_wW-R_X-O-B.png,stimuli/m0_none_X-O-B.png,stimuli/mW-R_none_X-O-B.png,stimuli/mB-R_none_X-O-B.png,stimuli/mB-R_none_X-B-O.png,stimuli/mB-R_none_X-B-X.png,stimuli/mW-L_none_X-B-X.png,stimuli/m0_none_X-B-X.png,stimuli/m0_wW-L_X-B-X.png,0,3,3,8,,,,,,,,,58.74665066075977,65.39968599844724,66.13736509450246,66.13736509450246,66.13736509450246,67.04693822818808,67.04693822818808,left,0.17643172258976847,59.799923456506804,S2,T-M,2023-01-25_13h44.39.511,knowing_that_K_ONLY,2022.2.5,60.01158960467836,
Does Anna know that the book is here?,Does Anna think that the book is here?,Is the book here?,late,5,per_5,per_K,1,1,1,no,X-B-O,O-B-O,X-B-O,M,stimuli/blue-M.png,mB-L,m0,stimuli/m0_w0_X-B-O.png,stimuli/mW-R_w0_X-B-O.png,stimuli/mB-L_w0_X-B-O.png,stimuli/mB-L_w0_O-B-O.png,stimuli/mB-L_w0_X-B-O.png,stimuli/mW-L_w0_X-B-O.png,stimuli/m0_wW-R_X-B-O.png,stimuli/m0_none_X-B-O.png,stimuli/m0_none_X-B-O.png,stimuli/m0_wW-L_X-B-O.png,0,4,4,4,,,,,,,,,67.2462477326626,73.90005107177421,74.6366262860829,74.6366262860829,74.6366262860829,75.54639286373276,75.54639286373276,left,0.04514744086191058,68.29961741087027,S2,T-M,2023-01-25_13h44.39.511,knowing_that_K_ONLY,2022.2.5,60.01158960467836,
Does Anna know that the book is here?,Does Anna think that the book is here?,Is the book here?,late,4,per_4,per_K,1,1,1,no,O-X-B,O-O-B,O-X-B,R,stimuli/blue-R.png,mB-M,m0,stimuli/m0_w0_O-X-B.png,stimuli/mW-R_w0_O-X-B.png,stimuli/mB-M_w0_O-X-B.png,stimuli/mB-M_w0_O-O-B.png,stimuli/mB-M_w0_O-X-B.png,stimuli/mW-L_w0_O-X-B.png,stimuli/m0_wW-R_O-X-B.png,stimuli/m0_none_O-X-B.png,stimuli/m0_none_O-X-B.png,stimuli/m0_wW-L_O-X-B.png,0,5,5,3,,,,,,,,,75.61328019981738,82.28827703988645,83.0248833722435,83.0248833722435,83.0248833722435,83.913648288697,83.913648288697,left,0.007022300851531327,76.65392588556278,S2,T-M,2023-01-25_13h44.39.511,knowing_that_K_ONLY,2022.2.5,60.01158960467836,
Does Anna know that the book is here?,Does Anna think that the book is here?,Is the book here?,late,18,mem_9,mem_K,1,1,1,switch,X-O-B,X-B-O,X-X-O,M,stimuli/blue-M.png,mB-L,m0,stimuli/m0_w0_X-O-B.png,stimuli/mW-R_w0_X-O-B.png,stimuli/mB-L_w0_X-O-B.png,stimuli/mB-L_w0_X-B-O.png,stimuli/mB-L_w0_X-X-O.png,stimuli/mW-L_w0_X-X-O.png,stimuli/m0_wW-R_X-X-O.png,stimuli/m0_none_X-X-O.png,stimuli/m0_none_X-X-O.png,stimuli/m0_wW-L_X-X-O.png,0,6,6,17,,,,,,,,,83.94697390135843,90.59718328923918,91.33513218024746,91.33513218024746,91.33513218024746,92.24657013930846,92.24657013930846,left,0.09641393728088588,85.011498205713,S2,T-M,2023-01-25_13h44.39.511,knowing_that_K_ONLY,2022.2.5,60.01158960467836,
Does Anna know that the book is here?,Does Anna think that the book is here?,Is the book here?,early,7,per_7,per_K,1,1,1,switch,B-X-O,O-X-B,X-X-B,R,stimuli/blue-R.png,mB-R,m0,stimuli/m0_w0_B-X-O.png,stimuli/m0_wW-R_B-X-O.png,stimuli/m0_none_B-X-O.png,stimuli/mW-R_none_B-X-O.png,stimuli/mB-R_none_B-X-O.png,stimuli/mB-R_none_O-X-B.png,stimuli/mB-R_none_X-X-B.png,stimuli/mW-L_none_X-X-B.png,stimuli/m0_none_X-X-B.png,stimuli/m0_wW-L_X-X-B.png,0,7,7,6,,,,,,,,,92.36341541807633,99.03865606815089,99.77577857172582,99.77577857172582,99.77577857172582,100.66343286982737,100.66343286982737,left,0.11224073206540197,93.41423664067406,S2,T-M,2023-01-25_13h44.39.511,knowing_that_K_ONLY,2022.2.5,60.01158960467836,
Does Anna know that the book is here?,Does Anna think that the book is here?,Is the book here?,late,14,mem_5,mem_K,1,1,1,no,O-B-X,O-B-X,O-X-X,M,stimuli/blue-M.png,mB-L,m0,stimuli/m0_w0_O-B-X.png,stimuli/mW-R_w0_O-B-X.png,stimuli/mB-L_w0_O-B-X.png,stimuli/mB-L_w0_O-B-X.png,stimuli/mB-L_w0_O-X-X.png,stimuli/mW-L_w0_O-X-X.png,stimuli/m0_wW-R_O-X-X.png,stimuli/m0_none_O-X-X.png,stimuli/m0_none_O-X-X.png,stimuli/m0_wW-L_O-X-X.png,0,8,8,13,,,,,,,,,100.79676290950738,107.4480360787129,108.18404090614058,108.18404090614058,108.18404090614058,109.09677490754984,109.09677490754984,left,0.0221622574608773,101.85081814276055,S2,T-M,2023-01-25_13h44.39.511,knowing_that_K_ONLY,2022.2.5,60.01158960467836,
Does Anna know that the book is here?,Does Anna think that the book is here?,Is the book here?,early,19,no_1,no_K,0,0,0,no,X-X-X,O-X-X,X-X-X,L,stimuli/blue-L.png,mB-L,m0,stimuli/m0_w0_X-X-X.png,stimuli/m0_wW-R_X-X-X.png,stimuli/m0_none_X-X-X.png,stimuli/mW-R_none_X-X-X.png,stimuli/mB-L_none_X-X-X.png,stimuli/mB-L_none_O-X-X.png,stimuli/mB-L_none_X-X-X.png,stimuli/mW-L_none_X-X-X.png,stimuli/m0_none_X-X-X.png,stimuli/m0_wW-L_X-X-X.png,0,9,9,18,,,,,,,,,109.1467591561377,115.79690823308192,116.55977995507419,116.55977995507419,116.55977995507419,117.44667491340078,117.44667491340078,right,0.8886147135635838,110.20156057609711,S2,T-M,2023-01-25_13h44.39.511,knowing_that_K_ONLY,2022.2.5,60.01158960467836,
Does Anna know that the book is here?,Does Anna think that the book is here?,Is the book here?,late,6,per_6,per_K,1,1,1,no,X-B-X,O-B-X,X-B-X,M,stimuli/blue-M.png,mB-L,m0,stimuli/m0_w0_X-B-X.png,stimuli/mW-R_w0_X-B-X.png,stimuli/mB-L_w0_X-B-X.png,stimuli/mB-L_w0_O-B-X.png,stimuli/mB-L_w0_X-B-X.png,stimuli/mW-L_w0_X-B-X.png,stimuli/m0_wW-R_X-B-X.png,stimuli/m0_none_X-B-X.png,stimuli/m0_none_X-B-X.png,stimuli/m0_wW-L_X-B-X.png,0,10,10,5,,,,,,,,,118.36315203923732,125.01627110631671,125.75386839779094,125.75386839779094,125.75386839779094,126.66297765087802,126.66297765087802,left,0.3857717610662803,119.4216497464804,S2,T-M,2023-01-25_13h44.39.511,knowing_that_K_ONLY,2022.2.5,60.01158960467836,
Does Anna know that the book is here?,Does Anna think that the book is here?,Is the book here?,late,13,mem_4,mem_K,1,1,1,no,B-X-O,B-X-O,X-X-O,L,stimuli/blue-L.png,mB-M,m0,stimuli/m0_w0_B-X-O.png,stimuli/mW-R_w0_B-X-O.png,stimuli/mB-M_w0_B-X-O.png,stimuli/mB-M_w0_B-X-O.png,stimuli/mB-M_w0_X-X-O.png,stimuli/mW-L_w0_X-X-O.png,stimuli/m0_wW-R_X-X-O.png,stimuli/m0_none_X-X-O.png,stimuli/m0_none_X-X-O.png,stimuli/m0_wW-L_X-X-O.png,0,11,11,12,,,,,,,,,127.08014706871472,133.7308877055766,134.49171174468938,134.49171174468938,134.49171174468938,135.38044041057583,135.38044041057583,left,0.5645762068452314,128.14251878776122,S2,T-M,2023-01-25_13h44.39.511,knowing_that_K_ONLY,2022.2.5,60.01158960467836,
Does Anna know that the book is here?,Does Anna think that the book is here?,Is the book here?,early,24,no_6,no_K,0,0,0,no,X-X-X,X-X-O,X-X-X,R,stimuli/blue-R.png,mB-R,m0,stimuli/m0_w0_X-X-X.png,stimuli/m0_wW-R_X-X-X.png,stimuli/m0_none_X-X-X.png,stimuli/mW-R_none_X-X-X.png,stimuli/mB-R_none_X-X-X.png,stimuli/mB-R_none_X-X-O.png,stimuli/mB-R_none_X-X-X.png,stimuli/mW-L_none_X-X-X.png,stimuli/m0_none_X-X-X.png,stimuli/m0_wW-L_X-X-X.png,0,12,12,23,,,,,,,,,135.96348464733455,142.61381914815865,143.37657121079974,143.37657121079974,143.37657121079974,144.263338810415,144.263338810415,right,0.34451847535092384,137.01717801520135,S2,T-M,2023-01-25_13h44.39.511,knowing_that_K_ONLY,2022.2.5,60.01158960467836,
Does Anna know that the book is here?,Does Anna think that the book is here?,Is the book here?,late,17,mem_8,mem_K,1,1,1,switch,O-X-B,B-X-O,X-X-O,L,stimuli/blue-L.png,mB-M,m0,stimuli/m0_w0_O-X-B.png,stimuli/mW-R_w0_O-X-B.png,stimuli/mB-M_w0_O-X-B.png,stimuli/mB-M_w0_B-X-O.png,stimuli/mB-M_w0_X-X-O.png,stimuli/mW-L_w0_X-X-O.png,stimuli/m0_wW-R_X-X-O.png,stimuli/m0_none_X-X-O.png,stimuli/m0_none_X-X-O.png,stimuli/m0_wW-L_X-X-O.png,0,13,13,16,,,,,,,,,144.62987178796902,151.28111608489417,152.01873294531833,152.01873294531833,152.01873294531833,152.93040188215673,152.93040188215673,left,0.029386410489678383,145.68160697701387,S2,T-M,2023-01-25_13h44.39.511,knowing_that_K_ONLY,2022.2.5,60.01158960467836,
Does Anna know that the book is here?,Does Anna think that the book is here?,Is the book here?,early,1,per_1,per_K,1,1,1,no,B-X-X,B-O-X,B-X-X,L,stimuli/blue-L.png,mB-M,m0,stimuli/m0_w0_B-X-X.png,stimuli/m0_wW-R_B-X-X.png,stimuli/m0_none_B-X-X.png,stimuli/mW-R_none_B-X-X.png,stimuli/mB-M_none_B-X-X.png,stimuli/mB-M_none_B-O-X.png,stimuli/mB-M_none_B-X-X.png,stimuli/mW-L_none_B-X-X.png,stimuli/m0_none_B-X-X.png,stimuli/m0_wW-L_B-X-X.png,0,14,14,0,,,,,,,,,152.9800749522401,159.65441895916592,160.3925988279516,160.3925988279516,160.3925988279516,161.28022008331027,161.28022008331027,left,0.26358640275429934,154.03772830718663,S2,T-M,2023-01-25_13h44.39.511,knowing_that_K_ONLY,2022.2.5,60.01158960467836,
Does Anna know that the book is here?,Does Anna think that the book is here?,Is the book here?,early,26,no_8,no_K,0,0,0,hide,X-B-O,O-B-O,X-O-X,R,stimuli/blue-R.png,mB-L,m0,stimuli/m0_w0_X-B-O.png,stimuli/m0_wW-R_X-B-O.png,stimuli/m0_none_X-B-O.png,stimuli/mW-R_none_X-B-O.png,stimuli/mB-L_none_X-B-O.png,stimuli/mB-L_none_O-B-O.png,stimuli/mB-L_none_X-O-X.png,stimuli/mW-L_none_X-O-X.png,stimuli/m0_none_X-O-X.png,stimuli/m0_wW-L_X-O-X.png,0,15,15,25,,,,,,,,,161.56344737007748,168.21077017637435,168.9727808642201,168.9727808642201,168.9727808642201,169.86356138333213,169.86356138333213,right,0.3120070594595745,162.62942811800167,S2,T-M,2023-01-25_13h44.39.511,knowing_that_K_ONLY,2022.2.5,60.01158960467836,
Does Anna know that the book is here?,Does Anna think that the book is here?,Is the book here?,early,23,no_5,no_K,0,0,0,no,X-O-X,X-O-O,X-O-X,R,stimuli/blue-R.png,mB-R,m0,stimuli/m0_w0_X-O-X.png,stimuli/m0_wW-R_X-O-X.png,stimuli/m0_none_X-O-X.png,stimuli/mW-R_none_X-O-X.png,stimuli/mB-R_none_X-O-X.png,stimuli/mB-R_none_X-O-O.png,stimuli/mB-R_none_X-O-X.png,stimuli/mW-L_none_X-O-X.png,stimuli/m0_none_X-O-X.png,stimuli/m0_wW-L_X-O-X.png,0,16,16,22,,,,,,,,,170.19688102905639,176.8488981393166,177.58665134082548,177.58665134082548,177.58665134082548,178.49655105150305,178.49655105150305,right,0.06326348276343197,171.25923061277717,S2,T-M,2023-01-25_13h44.39.511,knowing_that_K_ONLY,2022.2.5,60.01158960467836,
Does Anna know that the book is here?,Does Anna think that the book is here?,Is the book here?,early,2,per_2,per_K,1,1,1,no,X-X-B,O-X-B,X-X-B,R,stimuli/blue-R.png,mB-L,m0,stimuli/m0_w0_X-X-B.png,stimuli/m0_wW-R_X-X-B.png,stimuli/m0_none_X-X-B.png,stimuli/mW-R_none_X-X-B.png,stimuli/mB-L_none_X-X-B.png,stimuli/mB-L_none_O-X-B.png,stimuli/mB-L_none_X-X-B.png,stimuli/mW-L_none_X-X-B.png,stimuli/m0_none_X-X-B.png,stimuli/m0_wW-L_X-X-B.png,0,17,17,1,,,,,,,,,178.58023496856913,185.25496682571247,185.9906242240686,185.9906242240686,185.9906242240686,186.87956911080983,186.87956911080983,left,0.11973307619336993,179.63123199087568,S2,T-M,2023-01-25_13h44.39.511,knowing_that_K_ONLY,2022.2.5,60.01158960467836,
Does Anna know that the book is here?,Does Anna think that the book is here?,Is the book here?,early,28,no_10,no_K,0,0,0,hide,O-B-O,O-B-O,X-O-X,L,stimuli/blue-L.png,mB-M,m0,stimuli/m0_w0_O-B-O.png,stimuli/m0_wW-R_O-B-O.png,stimuli/m0_none_O-B-O.png,stimuli/mW-R_none_O-B-O.png,stimuli/mB-M_none_O-B-O.png,stimuli/mB-M_none_O-B-O.png,stimuli/mB-M_none_X-O-X.png,stimuli/mW-L_none_X-O-X.png,stimuli/m0_none_X-O-X.png,stimuli/m0_wW-L_X-O-X.png,0,18,18,27,,,,,,,,,187.0302568152547,193.7061284839874,194.41999600920826,194.41999600920826,194.41999600920826,195.330219730502,195.330219730502,right,0.005502338288351893,188.08300830679946,S2,T-M,2023-01-25_13h44.39.511,knowing_that_K_ONLY,2022.2.5,60.01158960467836,
Does Anna know that the book is here?,Does Anna think that the book is here?,Is the book here?,early,8,per_8,per_K,1,1,1,switch,O-X-B,B-X-O,B-X-X,L,stimuli/blue-L.png,mB-L,m0,stimuli/m0_w0_O-X-B.png,stimuli/m0_wW-R_O-X-B.png,stimuli/m0_none_O-X-B.png,stimuli/mW-R_none_O-X-B.png,stimuli/mB-L_none_O-X-B.png,stimuli/mB-L_none_B-X-O.png,stimuli/mB-L_none_B-X-X.png,stimuli/mW-L_none_B-X-X.png,stimuli/m0_none_B-X-X.png,stimuli/m0_wW-L_B-X-X.png,0,19,19,7,,,,,,,,,195.36370061163325,202.03775814175606,202.7770191152813,202.7770191152813,202.7770191152813,203.6636805293383,203.6636805293383,left,0.07211089693009853,196.42055388481822,S2,T-M,2023-01-25_13h44.39.511,knowing_that_K_ONLY,2022.2.5,60.01158960467836,
Does Anna know that the book is here?,Does Anna think that the book is here?,Is the book here?,early,21,no_3,no_K,0,0,0,no,X-X-O,X-O-O,X-X-O,M,stimuli/blue-M.png,mB-M,m0,stimuli/m0_w0_X-X-O.png,stimuli/m0_wW-R_X-X-O.png,stimuli/m0_none_X-X-O.png,stimuli/mW-R_none_X-X-O.png,stimuli/mB-M_none_X-X-O.png,stimuli/mB-M_none_X-O-O.png,stimuli/mB-M_none_X-X-O.png,stimuli/mW-L_none_X-X-O.png,stimuli/m0_none_X-X-O.png,stimuli/m0_wW-L_X-X-O.png,0,20,20,20,,,,,,,,,203.76376355311368,210.43681761284824,211.15386525390204,211.15386525390204,211.15386525390204,212.0638990601292,212.0638990601292,right,0.12857375340536237,204.8263915934367,S2,T-M,2023-01-25_13h44.39.511,knowing_that_K_ONLY,2022.2.5,60.01158960467836,
Does Anna know that the book is here?,Does Anna think that the book is here?,Is the book here?,early,27,no_9,no_K,0,0,0,hide,X-X-B,O-O-B,X-X-O,L,stimuli/blue-L.png,mB-M,m0,stimuli/m0_w0_X-X-B.png,stimuli/m0_wW-R_X-X-B.png,stimuli/m0_none_X-X-B.png,stimuli/mW-R_none_X-X-B.png,stimuli/mB-M_none_X-X-B.png,stimuli/mB-M_none_O-O-B.png,stimuli/mB-M_none_X-X-O.png,stimuli/mW-L_none_X-X-O.png,stimuli/m0_none_X-X-O.png,stimuli/m0_wW-L_X-X-O.png,0,21,21,26,,,,,,,,,212.21363558492158,218.888351081172,219.603778990102,219.603778990102,219.603778990102,220.51364950777497,220.51364950777497,right,0.19904060452245176,213.2762706829235,S2,T-M,2023-01-25_13h44.39.511,knowing_that_K_ONLY,2022.2.5,60.01158960467836,
Does Anna know that the book is here?,Does Anna think that the book is here?,Is the book here?,early,20,no_2,no_K,0,0,0,no,X-O-X,O-O-X,X-O-X,L,stimuli/blue-L.png,mB-L,m0,stimuli/m0_w0_X-O-X.png,stimuli/m0_wW-R_X-O-X.png,stimuli/m0_none_X-O-X.png,stimuli/mW-R_none_X-O-X.png,stimuli/mB-L_none_X-O-X.png,stimuli/mB-L_none_O-O-X.png,stimuli/mB-L_none_X-O-X.png,stimuli/mW-L_none_X-O-X.png,stimuli/m0_none_X-O-X.png,stimuli/m0_wW-L_X-O-X.png,0,22,22,19,,,,,,,,,220.73035292769782,227.38141532952432,228.1421283710515,228.1421283710515,228.1421283710515,229.03020548680797,229.03020548680797,right,0.1060890220105648,221.78673141309991,S2,T-M,2023-01-25_13h44.39.511,knowing_that_K_ONLY,2022.2.5,60.01158960467836,
Does Anna know that the book is here?,Does Anna think that the book is here?,Is the book here?,late,10,mem_1,mem_K,1,1,1,no,O-X-B,X-X-B,X-X-X,R,stimuli/blue-R.png,mB-M,m0,stimuli/m0_w0_O-X-B.png,stimuli/mW-R_w0_O-X-B.png,stimuli/mB-M_w0_O-X-B.png,stimuli/mB-M_w0_X-X-B.png,stimuli/mB-M_w0_X-X-X.png,stimuli/mW-L_w0_X-X-X.png,stimuli/m0_wW-R_X-X-X.png,stimuli/m0_none_X-X-X.png,stimuli/m0_none_X-X-X.png,stimuli/m0_wW-L_X-X-X.png,0,23,23,9,,,,,,,,,229.16374693554826,235.81363519991282,236.55516007728875,236.55516007728875,236.55516007728875,237.46362515888177,237.46362515888177,left,0.09631480928510427,230.21595113782678,S2,T-M,2023-01-25_13h44.39.511,knowing_that_K_ONLY,2022.2.5,60.01158960467836,
Does Anna know that the book is here?,Does Anna think that the book is here?,Is the book here?,early,3,per_3,per_K,1,1,1,no,O-B-X,O-B-O,O-B-X,M,stimuli/blue-M.png,mB-R,m0,stimuli/m0_w0_O-B-X.png,stimuli/m0_wW-R_O-B-X.png,stimuli/m0_none_O-B-X.png,stimuli/mW-R_none_O-B-X.png,stimuli/mB-R_none_O-B-X.png,stimuli/mB-R_none_O-B-O.png,stimuli/mB-R_none_O-B-X.png,stimuli/mW-L_none_O-B-X.png,stimuli/m0_none_O-B-X.png,stimuli/m0_wW-L_O-B-X.png,0,24,24,2,,,,,,,,,237.58031581086107,244.23106671345886,244.99409338308033,244.99409338308033,244.99409338308033,245.88048788940068,245.88048788940068,left,0.4792706328444183,238.6377837418113,S2,T-M,2023-01-25_13h44.39.511,knowing_that_K_ONLY,2022.2.5,60.01158960467836,
Does Anna know that the book is here?,Does Anna think that the book is here?,Is the book here?,late,12,mem_3,mem_K,1,1,1,no,X-O-B,X-O-B,X-O-X,R,stimuli/blue-R.png,mB-M,m0,stimuli/m0_w0_X-O-B.png,stimuli/mW-R_w0_X-O-B.png,stimuli/mB-M_w0_X-O-B.png,stimuli/mB-M_w0_X-O-B.png,stimuli/mB-M_w0_X-O-X.png,stimuli/mW-L_w0_X-O-X.png,stimuli/m0_wW-R_X-O-X.png,stimuli/m0_none_X-O-X.png,stimuli/m0_none_X-O-X.png,stimuli/m0_wW-L_X-O-X.png,0,25,25,11,,,,,,,,,246.38054627540987,253.0317244869657,253.7953642103821,253.7953642103821,253.7953642103821,254.68033339083195,254.68033339083195,left,0.7669070301344618,247.43961436965037,S2,T-M,2023-01-25_13h44.39.511,knowing_that_K_ONLY,2022.2.5,60.01158960467836,
Does Anna know that the book is here?,Does Anna think that the book is here?,Is the book here?,late,16,mem_7,mem_K,1,1,1,switch,B-X-O,O-X-B,O-X-X,R,stimuli/blue-R.png,mB-M,m0,stimuli/m0_w0_B-X-O.png,stimuli/mW-R_w0_B-X-O.png,stimuli/mB-M_w0_B-X-O.png,stimuli/mB-M_w0_O-X-B.png,stimuli/mB-M_w0_O-X-X.png,stimuli/mW-L_w0_O-X-X.png,stimuli/m0_wW-R_O-X-X.png,stimuli/m0_none_O-X-X.png,stimuli/m0_none_O-X-X.png,stimuli/m0_wW-L_O-X-X.png,0,26,26,15,,,,,,,,,255.4637047179276,262.114791821572,262.8533592199674,262.8533592199674,262.8533592199674,263.76372954796534,263.76372954796534,left,0.15628756675869226,256.5260690584546,S2,T-M,2023-01-25_13h44.39.511,knowing_that_K_ONLY,2022.2.5,60.01158960467836,
Does Anna know that the book is here?,Does Anna think that the book is here?,Is the book here?,early,25,no_7,no_K,0,0,0,hide,B-X-X,B-O-O,O-X-X,M,stimuli/blue-M.png,mB-L,m0,stimuli/m0_w0_B-X-X.png,stimuli/m0_wW-R_B-X-X.png,stimuli/m0_none_B-X-X.png,stimuli/mW-R_none_B-X-X.png,stimuli/mB-L_none_B-X-X.png,stimuli/mB-L_none_B-O-O.png,stimuli/mB-L_none_O-X-X.png,stimuli/mW-L_none_O-X-X.png,stimuli/m0_none_O-X-X.png,stimuli/m0_wW-L_O-X-X.png,0,27,27,24,,,,,,,,,263.94708072859794,270.6195586269023,271.35608347540256,271.35608347540256,271.35608347540256,272.24696215998847,272.24696215998847,right,0.4260972859337926,265.01378392404877,S2,T-M,2023-01-25_13h44.39.511,knowing_that_K_ONLY,2022.2.5,60.01158960467836,
Does Anna know that the book is here?,Does Anna think that the book is here?,Is the book here?,early,2,per_2,per_K,1,1,1,no,X-X-B,O-X-B,X-X-B,R,stimuli/blue-R.png,mB-L,m0,stimuli/m0_w0_X-X-B.png,stimuli/m0_wW-R_X-X-B.png,stimuli/m0_none_X-X-B.png,stimuli/mW-R_none_X-X-B.png,stimuli/mB-L_none_X-X-B.png,stimuli/mB-L_none_O-X-B.png,stimuli/mB-L_none_X-X-B.png,stimuli/mW-L_none_X-X-B.png,stimuli/m0_none_X-X-B.png,stimuli/m0_wW-L_X-X-B.png,1,0,28,1,,,,,,,,,272.69701223727316,279.34983744926285,280.0883618601365,280.0883618601365,280.0883618601365,280.9971775789745,280.9971775789745,left,0.41836113191675395,273.7543913059635,S2,T-M,2023-01-25_13h44.39.511,knowing_that_K_ONLY,2022.2.5,60.01158960467836,
Does Anna know that the book is here?,Does Anna think that the book is here?,Is the book here?,late,15,mem_6,mem_K,1,1,1,no,X-B-O,X-B-X,X-X-X,M,stimuli/blue-M.png,mB-R,m0,stimuli/m0_w0_X-B-O.png,stimuli/mW-R_w0_X-B-O.png,stimuli/mB-R_w0_X-B-O.png,stimuli/mB-R_w0_X-B-X.png,stimuli/mB-R_w0_X-X-X.png,stimuli/mW-L_w0_X-X-X.png,stimuli/m0_wW-R_X-X-X.png,stimuli/m0_none_X-X-X.png,stimuli/m0_none_X-X-X.png,stimuli/m0_wW-L_X-X-X.png,1,1,29,14,,,,,,,,,281.44703228748403,288.1205252050422,288.8567096820334,288.8567096820334,288.8567096820334,289.7472553735133,289.7472553735133,right,0.13254400598816574,282.49684490670916,S2,T-M,2023-01-25_13h44.39.511,knowing_that_K_ONLY,2022.2.5,60.01158960467836,
Does Anna know that the book is here?,Does Anna think that the book is here?,Is the book here?,late,6,per_6,per_K,1,1,1,no,X-B-X,O-B-X,X-B-X,M,stimuli/blue-M.png,mB-L,m0,stimuli/m0_w0_X-B-X.png,stimuli/mW-R_w0_X-B-X.png,stimuli/mB-L_w0_X-B-X.png,stimuli/mB-L_w0_O-B-X.png,stimuli/mB-L_w0_X-B-X.png,stimuli/mW-L_w0_X-B-X.png,stimuli/m0_wW-R_X-B-X.png,stimuli/m0_none_X-B-X.png,stimuli/m0_none_X-B-X.png,stimuli/m0_wW-L_X-B-X.png,1,2,30,5,,,,,,,,,289.8970804399578,296.56946049339604,297.28805921494495,297.28805921494495,297.28805921494495,298.1969833651092,298.1969833651092,left,0.05173672561068088,290.9542968616588,S2,T-M,2023-01-25_13h44.39.511,knowing_that_K_ONLY,2022.2.5,60.01158960467836,
Does Anna know that the book is here?,Does Anna think that the book is here?,Is the book here?,early,19,no_1,no_K,0,0,0,no,X-X-X,O-X-X,X-X-X,L,stimuli/blue-L.png,mB-L,m0,stimuli/m0_w0_X-X-X.png,stimuli/m0_wW-R_X-X-X.png,stimuli/m0_none_X-X-X.png,stimuli/mW-R_none_X-X-X.png,stimuli/mB-L_none_X-X-X.png,stimuli/mB-L_none_O-X-X.png,stimuli/mB-L_none_X-X-X.png,stimuli/mW-L_none_X-X-X.png,stimuli/m0_none_X-X-X.png,stimuli/m0_wW-L_X-X-X.png,1,3,31,18,,,,,,,,,298.28029835922644,304.95513960998505,305.69007488165516,305.69007488165516,305.69007488165516,306.5804332245607,306.5804332245607,right,1.4349174317903817,299.33870142966043,S2,T-M,2023-01-25_13h44.39.511,knowing_that_K_ONLY,2022.2.5,60.01158960467836,
Does Anna know that the book is here?,Does Anna think that the book is here?,Is the book here?,late,4,per_4,per_K,1,1,1,no,O-X-B,O-O-B,O-X-B,R,stimuli/blue-R.png,mB-M,m0,stimuli/m0_w0_O-X-B.png,stimuli/mW-R_w0_O-X-B.png,stimuli/mB-M_w0_O-X-B.png,stimuli/mB-M_w0_O-O-B.png,stimuli/mB-M_w0_O-X-B.png,stimuli/mW-L_w0_O-X-B.png,stimuli/m0_wW-R_O-X-B.png,stimuli/m0_none_O-X-B.png,stimuli/m0_none_O-X-B.png,stimuli/m0_wW-L_O-X-B.png,1,4,32,3,,,,,,,,,308.04712172725704,314.69866084167734,315.435980959679,315.435980959679,315.435980959679,316.3471324420534,316.3471324420534,left,0.26885173527989537,309.107521472848,S2,T-M,2023-01-25_13h44.39.511,knowing_that_K_ONLY,2022.2.5,60.01158960467836,
Does Anna know that the book is here?,Does Anna think that the book is here?,Is the book here?,early,3,per_3,per_K,1,1,1,no,O-B-X,O-B-O,O-B-X,M,stimuli/blue-M.png,mB-R,m0,stimuli/m0_w0_O-B-X.png,stimuli/m0_wW-R_O-B-X.png,stimuli/m0_none_O-B-X.png,stimuli/mW-R_none_O-B-X.png,stimuli/mB-R_none_O-B-X.png,stimuli/mB-R_none_O-B-O.png,stimuli/mB-R_none_O-B-X.png,stimuli/mW-L_none_O-B-X.png,stimuli/m0_none_O-B-X.png,stimuli/m0_wW-L_O-B-X.png,1,5,33,2,,,,,,,,,316.6471142845694,323.29783374851104,324.0584816670744,324.0584816670744,324.0584816670744,324.94679296878166,324.94679296878166,left,0.07735409412998706,317.7070812676102,S2,T-M,2023-01-25_13h44.39.511,knowing_that_K_ONLY,2022.2.5,60.01158960467836,
Does Anna know that the book is here?,Does Anna think that the book is here?,Is the book here?,early,9,per_9,per_K,1,1,1,switch,X-O-B,X-B-O,X-B-X,M,stimuli/blue-M.png,mB-R,m0,stimuli/m0_w0_X-O-B.png,stimuli/m0_wW-R_X-O-B.png,stimuli/m0_none_X-O-B.png,stimuli/mW-R_none_X-O-B.png,stimuli/mB-R_none_X-O-B.png,stimuli/mB-R_none_X-B-O.png,stimuli/mB-R_none_X-B-X.png,stimuli/mW-L_none_X-B-X.png,stimuli/m0_none_X-B-X.png,stimuli/m0_wW-L_X-B-X.png,1,6,34,8,,,,,,,,,325.0468490450876,331.6972951851785,332.43492166965734,332.43492166965734,332.43492166965734,333.3471077402355,333.3471077402355,left,0.004792081308551133,326.09886525711045,S2,T-M,2023-01-25_13h44.39.511,knowing_that_K_ONLY,2022.2.5,60.01158960467836,
Does Anna know that the book is here?,Does Anna think that the book is here?,Is the book here?,early,22,no_4,no_K,0,0,0,no,O-X-X,O-O-X,O-X-X,M,stimuli/blue-M.png,mB-M,m0,stimuli/m0_w0_O-X-X.png,stimuli/m0_wW-R_O-X-X.png,stimuli/m0_none_O-X-X.png,stimuli/mW-R_none_O-X-X.png,stimuli/mB-M_none_O-X-X.png,stimuli/mB-M_none_O-O-X.png,stimuli/mB-M_none_O-X-X.png,stimuli/mW-L_none_O-X-X.png,stimuli/m0_none_O-X-X.png,stimuli/m0_wW-L_O-X-X.png,1,7,35,21,,,,,,,,,333.3804885309655,340.0506239288952,340.78996414062567,340.78996414062567,340.78996414062567,341.6803590550553,341.6803590550553,right,0.32779022527392954,334.43938788294327,S2,T-M,2023-01-25_13h44.39.511,knowing_that_K_ONLY,2022.2.5,60.01158960467836,
Does Anna know that the book is here?,Does Anna think that the book is here?,Is the book here?,late,11,mem_2,mem_K,1,1,1,no,O-B-O,O-B-X,O-X-X,M,stimuli/blue-M.png,mB-L,m0,stimuli/m0_w0_O-B-O.png,stimuli/mW-R_w0_O-B-O.png,stimuli/mB-L_w0_O-B-O.png,stimuli/mB-L_w0_O-B-X.png,stimuli/mB-L_w0_O-X-X.png,stimuli/mW-L_w0_O-X-X.png,stimuli/m0_wW-R_O-X-X.png,stimuli/m0_none_O-X-X.png,stimuli/m0_none_O-X-X.png,stimuli/m0_wW-L_O-X-X.png,1,8,36,10,,,,,,,,,342.0307774777757,348.70579003728926,349.444897346315,349.444897346315,349.444897346315,350.3306864982005,350.3306864982005,left,0.10973783046938479,343.0766397342086,S2,T-M,2023-01-25_13h44.39.511,knowing_that_K_ONLY,2022.2.5,60.01158960467836,
Does Anna know that the book is here?,Does Anna think that the book is here?,Is the book here?,late,5,per_5,per_K,1,1,1,no,X-B-O,O-B-O,X-B-O,M,stimuli/blue-M.png,mB-L,m0,stimuli/m0_w0_X-B-O.png,stimuli/mW-R_w0_X-B-O.png,stimuli/mB-L_w0_X-B-O.png,stimuli/mB-L_w0_O-B-O.png,stimuli/mB-L_w0_X-B-O.png,stimuli/mW-L_w0_X-B-O.png,stimuli/m0_wW-R_X-B-O.png,stimuli/m0_none_X-B-O.png,stimuli/m0_none_X-B-O.png,stimuli/m0_wW-L_X-B-O.png,1,9,37,4,,,,,,,,,350.46410700434353,357.11483801715076,357.87409525655676,357.87409525655676,357.87409525655676,358.76370324217714,358.76370324217714,left,0.004497905494645238,351.5273070356343,S2,T-M,2023-01-25_13h44.39.511,knowing_that_K_ONLY,2022.2.5,60.01158960467836,
Does Anna know that the book is here?,Does Anna think that the book is here?,Is the book here?,early,23,no_5,no_K,0,0,0,no,X-O-X,X-O-O,X-O-X,R,stimuli/blue-R.png,mB-R,m0,stimuli/m0_w0_X-O-X.png,stimuli/m0_wW-R_X-O-X.png,stimuli/m0_none_X-O-X.png,stimuli/mW-R_none_X-O-X.png,stimuli/mB-R_none_X-O-X.png,stimuli/mB-R_none_X-O-O.png,stimuli/mB-R_none_X-O-X.png,stimuli/mW-L_none_X-O-X.png,stimuli/m0_none_X-O-X.png,stimuli/m0_wW-L_X-O-X.png,1,10,38,22,,,,,,,,,358.7969826592598,365.4473668845603,366.18721813475713,366.18721813475713,366.18721813475713,367.0971864972962,367.0971864972962,right,0.047367715393193066,359.836534729111,S2,T-M,2023-01-25_13h44.39.511,knowing_that_K_ONLY,2022.2.5,60.01158960467836,
Does Anna know that the book is here?,Does Anna think that the book is here?,Is the book here?,late,10,mem_1,mem_K,1,1,1,no,O-X-B,X-X-B,X-X-X,R,stimuli/blue-R.png,mB-M,m0,stimuli/m0_w0_O-X-B.png,stimuli/mW-R_w0_O-X-B.png,stimuli/mB-M_w0_O-X-B.png,stimuli/mB-M_w0_X-X-B.png,stimuli/mB-M_w0_X-X-X.png,stimuli/mW-L_w0_X-X-X.png,stimuli/m0_wW-R_X-X-X.png,stimuli/m0_none_X-X-X.png,stimuli/m0_none_X-X-X.png,stimuli/m0_wW-L_X-X-X.png,1,11,39,9,,,,,,,,,367.1638819933869,373.81446415383834,374.57479736499954,374.57479736499954,374.57479736499954,375.463882763288,375.463882763288,right,0.4964075854513794,368.2199810597813,S2,T-M,2023-01-25_13h44.39.511,knowing_that_K_ONLY,2022.2.5,60.01158960467836,
Does Anna know that the book is here?,Does Anna think that the book is here?,Is the book here?,early,25,no_7,no_K,0,0,0,hide,B-X-X,B-O-O,O-X-X,M,stimuli/blue-M.png,mB-L,m0,stimuli/m0_w0_B-X-X.png,stimuli/m0_wW-R_B-X-X.png,stimuli/m0_none_B-X-X.png,stimuli/mW-R_none_B-X-X.png,stimuli/mB-L_none_B-X-X.png,stimuli/mB-L_none_B-O-O.png,stimuli/mB-L_none_O-X-X.png,stimuli/mW-L_none_O-X-X.png,stimuli/m0_none_O-X-X.png,stimuli/m0_wW-L_O-X-X.png,1,12,40,24,,,,,,,,,375.9805657801917,382.6308492734097,383.3893859902164,383.3893859902164,383.3893859902164,384.2804423995549,384.2804423995549,right,0.11134505132213235,377.03299711085856,S2,T-M,2023-01-25_13h44.39.511,knowing_that_K_ONLY,2022.2.5,60.01158960467836,
Does Anna know that the book is here?,Does Anna think that the book is here?,Is the book here?,late,13,mem_4,mem_K,1,1,1,no,B-X-O,B-X-O,X-X-O,L,stimuli/blue-L.png,mB-M,m0,stimuli/m0_w0_B-X-O.png,stimuli/mW-R_w0_B-X-O.png,stimuli/mB-M_w0_B-X-O.png,stimuli/mB-M_w0_B-X-O.png,stimuli/mB-M_w0_X-X-O.png,stimuli/mW-L_w0_X-X-O.png,stimuli/m0_wW-R_X-X-O.png,stimuli/m0_none_X-X-O.png,stimuli/m0_none_X-X-O.png,stimuli/m0_wW-L_X-X-O.png,1,13,41,12,,,,,,,,,384.41379810345825,391.0901990964776,391.82564989780076,391.82564989780076,391.82564989780076,392.71390858793166,392.71390858793166,right,0.5824182835640386,385.4703998675104,S2,T-M,2023-01-25_13h44.39.511,knowing_that_K_ONLY,2022.2.5,60.01158960467836,
Does Anna know that the book is here?,Does Anna think that the book is here?,Is the book here?,late,16,mem_7,mem_K,1,1,1,switch,B-X-O,O-X-B,O-X-X,R,stimuli/blue-R.png,mB-M,m0,stimuli/m0_w0_B-X-O.png,stimuli/mW-R_w0_B-X-O.png,stimuli/mB-M_w0_B-X-O.png,stimuli/mB-M_w0_O-X-B.png,stimuli/mB-M_w0_O-X-X.png,stimuli/mW-L_w0_O-X-X.png,stimuli/m0_wW-R_O-X-X.png,stimuli/m0_none_O-X-X.png,stimuli/m0_none_O-X-X.png,stimuli/m0_wW-L_O-X-X.png,1,14,42,15,,,,,,,,,393.31410902540665,399.96534562297165,400.7281830190914,400.7281830190914,400.7281830190914,401.6139997600112,401.6139997600112,left,0.01790777372661978,394.37401633907575,S2,T-M,2023-01-25_13h44.39.511,knowing_that_K_ONLY,2022.2.5,60.01158960467836,
Does Anna know that the book is here?,Does Anna think that the book is here?,Is the book here?,late,12,mem_3,mem_K,1,1,1,no,X-O-B,X-O-B,X-O-X,R,stimuli/blue-R.png,mB-M,m0,stimuli/m0_w0_X-O-B.png,stimuli/mW-R_w0_X-O-B.png,stimuli/mB-M_w0_X-O-B.png,stimuli/mB-M_w0_X-O-B.png,stimuli/mB-M_w0_X-O-X.png,stimuli/mW-L_w0_X-O-X.png,stimuli/m0_wW-R_X-O-X.png,stimuli/m0_none_X-O-X.png,stimuli/m0_none_X-O-X.png,stimuli/m0_wW-L_X-O-X.png,1,15,43,11,,,,,,,,,401.6640622843988,408.3343022640329,409.0767353333067,409.0767353333067,409.0767353333067,409.9639530191198,409.9639530191198,left,0.05179639486595988,402.7267535228748,S2,T-M,2023-01-25_13h44.39.511,knowing_that_K_ONLY,2022.2.5,60.01158960467836,
Does Anna know that the book is here?,Does Anna think that the book is here?,Is the book here?,late,17,mem_8,mem_K,1,1,1,switch,O-X-B,B-X-O,X-X-O,L,stimuli/blue-L.png,mB-M,m0,stimuli/m0_w0_O-X-B.png,stimuli/mW-R_w0_O-X-B.png,stimuli/mB-M_w0_O-X-B.png,stimuli/mB-M_w0_B-X-O.png,stimuli/mB-M_w0_X-X-O.png,stimuli/mW-L_w0_X-X-O.png,stimuli/m0_wW-R_X-X-O.png,stimuli/m0_none_X-X-O.png,stimuli/m0_none_X-X-O.png,stimuli/m0_wW-L_X-X-O.png,1,16,44,16,,,,,,,,,410.0472879029112,416.69965468812734,417.4378053639084,417.4378053639084,417.4378053639084,418.34710517385975,418.34710517385975,left,0.12431157054379582,411.1110365065979,S2,T-M,2023-01-25_13h44.39.511,knowing_that_K_ONLY,2022.2.5,60.01158960467836,
Does Anna know that the book is here?,Does Anna think that the book is here?,Is the book here?,early,26,no_8,no_K,0,0,0,hide,X-B-O,O-B-O,X-O-X,R,stimuli/blue-R.png,mB-L,m0,stimuli/m0_w0_X-B-O.png,stimuli/m0_wW-R_X-B-O.png,stimuli/m0_none_X-B-O.png,stimuli/mW-R_none_X-B-O.png,stimuli/mB-L_none_X-B-O.png,stimuli/mB-L_none_O-B-O.png,stimuli/mB-L_none_X-O-X.png,stimuli/mW-L_none_X-O-X.png,stimuli/m0_none_X-O-X.png,stimuli/m0_wW-L_X-O-X.png,1,17,45,25,,,,,,,,,418.4973267521709,425.14778925315477,425.8894883262692,425.8894883262692,425.8894883262692,426.7971212459961,426.7971212459961,right,0.2666317814728245,419.55303508101497,S2,T-M,2023-01-25_13h44.39.511,knowing_that_K_ONLY,2022.2.5,60.01158960467836,
Does Anna know that the book is here?,Does Anna think that the book is here?,Is the book here?,late,14,mem_5,mem_K,1,1,1,no,O-B-X,O-B-X,O-X-X,M,stimuli/blue-M.png,mB-L,m0,stimuli/m0_w0_O-B-X.png,stimuli/mW-R_w0_O-B-X.png,stimuli/mB-L_w0_O-B-X.png,stimuli/mB-L_w0_O-B-X.png,stimuli/mB-L_w0_O-X-X.png,stimuli/mW-L_w0_O-X-X.png,stimuli/m0_wW-R_O-X-X.png,stimuli/m0_none_O-X-X.png,stimuli/m0_none_O-X-X.png,stimuli/m0_wW-L_O-X-X.png,1,18,46,13,,,,,,,,,427.08062698936556,433.7561069581425,434.49377225968055,434.49377225968055,434.49377225968055,435.3807791781146,435.3807791781146,left,0.08314554288517684,428.1325071811443,S2,T-M,2023-01-25_13h44.39.511,knowing_that_K_ONLY,2022.2.5,60.01158960467836,
Does Anna know that the book is here?,Does Anna think that the book is here?,Is the book here?,early,1,per_1,per_K,1,1,1,no,B-X-X,B-O-X,B-X-X,L,stimuli/blue-L.png,mB-M,m0,stimuli/m0_w0_B-X-X.png,stimuli/m0_wW-R_B-X-X.png,stimuli/m0_none_B-X-X.png,stimuli/mW-R_none_B-X-X.png,stimuli/mB-M_none_B-X-X.png,stimuli/mB-M_none_B-O-X.png,stimuli/mB-M_none_B-X-X.png,stimuli/mW-L_none_B-X-X.png,stimuli/m0_none_B-X-X.png,stimuli/m0_wW-L_B-X-X.png,1,19,47,0,,,,,,,,,435.48055358976126,442.1535210327711,442.8929658262059,442.8929658262059,442.8929658262059,443.7809046760667,443.7809046760667,left,0.24252475146204233,436.5393390568206,S2,T-M,2023-01-25_13h44.39.511,knowing_that_K_ONLY,2022.2.5,60.01158960467836,
Does Anna know that the book is here?,Does Anna think that the book is here?,Is the book here?,early,21,no_3,no_K,0,0,0,no,X-X-O,X-O-O,X-X-O,M,stimuli/blue-M.png,mB-M,m0,stimuli/m0_w0_X-X-O.png,stimuli/m0_wW-R_X-X-O.png,stimuli/m0_none_X-X-O.png,stimuli/mW-R_none_X-X-O.png,stimuli/mB-M_none_X-X-O.png,stimuli/mB-M_none_X-O-O.png,stimuli/mB-M_none_X-X-O.png,stimuli/mW-L_none_X-X-O.png,stimuli/m0_none_X-X-O.png,stimuli/m0_wW-L_X-X-O.png,1,20,48,20,,,,,,,,,444.04729463974945,450.7174861781532,451.4573945313459,451.4573945313459,451.4573945313459,452.34742084355094,452.34742084355094,right,0.10805425851140171,445.11092935863417,S2,T-M,2023-01-25_13h44.39.511,knowing_that_K_ONLY,2022.2.5,60.01158960467836,
Does Anna know that the book is here?,Does Anna think that the book is here?,Is the book here?,late,18,mem_9,mem_K,1,1,1,switch,X-O-B,X-B-O,X-X-O,M,stimuli/blue-M.png,mB-L,m0,stimuli/m0_w0_X-O-B.png,stimuli/mW-R_w0_X-O-B.png,stimuli/mB-L_w0_X-O-B.png,stimuli/mB-L_w0_X-B-O.png,stimuli/mB-L_w0_X-X-O.png,stimuli/mW-L_w0_X-X-O.png,stimuli/m0_wW-R_X-X-O.png,stimuli/m0_none_X-X-O.png,stimuli/m0_none_X-X-O.png,stimuli/m0_wW-L_X-X-O.png,1,21,49,17,,,,,,,,,452.48073067271616,459.15516514587216,459.89546776539646,459.89546776539646,459.89546776539646,460.7805700789904,460.7805700789904,left,0.1321927272947505,453.5392992773559,S2,T-M,2023-01-25_13h44.39.511,knowing_that_K_ONLY,2022.2.5,60.01158960467836,
Does Anna know that the book is here?,Does Anna think that the book is here?,Is the book here?,early,24,no_6,no_K,0,0,0,no,X-X-X,X-X-O,X-X-X,R,stimuli/blue-R.png,mB-R,m0,stimuli/m0_w0_X-X-X.png,stimuli/m0_wW-R_X-X-X.png,stimuli/m0_none_X-X-X.png,stimuli/mW-R_none_X-X-X.png,stimuli/mB-R_none_X-X-X.png,stimuli/mB-R_none_X-X-O.png,stimuli/mB-R_none_X-X-X.png,stimuli/mW-L_none_X-X-X.png,stimuli/m0_none_X-X-X.png,stimuli/m0_wW-L_X-X-X.png,1,22,50,23,,,,,,,,,460.93071049428545,467.5813324342016,468.3449881976703,468.3449881976703,468.3449881976703,469.23072345461696,469.23072345461696,right,0.49793236004188657,461.98633605602663,S2,T-M,2023-01-25_13h44.39.511,knowing_that_K_ONLY,2022.2.5,60.01158960467836,
Does Anna know that the book is here?,Does Anna think that the book is here?,Is the book here?,early,8,per_8,per_K,1,1,1,switch,O-X-B,B-X-O,B-X-X,L,stimuli/blue-L.png,mB-L,m0,stimuli/m0_w0_O-X-B.png,stimuli/m0_wW-R_O-X-B.png,stimuli/m0_none_O-X-B.png,stimuli/mW-R_none_O-X-B.png,stimuli/mB-L_none_O-X-B.png,stimuli/mB-L_none_B-X-O.png,stimuli/mB-L_none_B-X-X.png,stimuli/mW-L_none_B-X-X.png,stimuli/m0_none_B-X-X.png,stimuli/m0_wW-L_B-X-X.png,1,23,51,7,,,,,,,,,469.74758323375136,476.42278346267994,477.16014047304634,477.16014047304634,477.16014047304634,478.04728854459245,478.04728854459245,left,0.14434119977522641,470.80435758957174,S2,T-M,2023-01-25_13h44.39.511,knowing_that_K_ONLY,2022.2.5,60.01158960467836,
Does Anna know that the book is here?,Does Anna think that the book is here?,Is the book here?,early,27,no_9,no_K,0,0,0,hide,X-X-B,O-O-B,X-X-O,L,stimuli/blue-L.png,mB-M,m0,stimuli/m0_w0_X-X-B.png,stimuli/m0_wW-R_X-X-B.png,stimuli/m0_none_X-X-B.png,stimuli/mW-R_none_X-X-B.png,stimuli/mB-M_none_X-X-B.png,stimuli/mB-M_none_O-O-B.png,stimuli/mB-M_none_X-X-O.png,stimuli/mW-L_none_X-X-O.png,stimuli/m0_none_X-X-O.png,stimuli/m0_wW-L_X-X-O.png,1,24,52,26,,,,,,,,,478.21389383100905,484.88979340950027,485.62652196758427,485.62652196758427,485.62652196758427,486.51423529325984,486.51423529325984,right,0.10946418589446694,479.27187472523656,S2,T-M,2023-01-25_13h44.39.511,knowing_that_K_ONLY,2022.2.5,60.01158960467836,
Does Anna know that the book is here?,Does Anna think that the book is here?,Is the book here?,early,7,per_7,per_K,1,1,1,switch,B-X-O,O-X-B,X-X-B,R,stimuli/blue-R.png,mB-R,m0,stimuli/m0_w0_B-X-O.png,stimuli/m0_wW-R_B-X-O.png,stimuli/m0_none_B-X-O.png,stimuli/mW-R_none_B-X-O.png,stimuli/mB-R_none_B-X-O.png,stimuli/mB-R_none_O-X-B.png,stimuli/mB-R_none_X-X-B.png,stimuli/mW-L_none_X-X-B.png,stimuli/m0_none_X-X-B.png,stimuli/m0_wW-L_X-X-B.png,1,25,53,6,,,,,,,,,486.64751817507204,493.3233426857041,494.05834821320605,494.05834821320605,494.05834821320605,494.9474406691734,494.9474406691734,left,0.2685780907049775,487.71216759236995,S2,T-M,2023-01-25_13h44.39.511,knowing_that_K_ONLY,2022.2.5,60.01158960467836,
Does Anna know that the book is here?,Does Anna think that the book is here?,Is the book here?,early,28,no_10,no_K,0,0,0,hide,O-B-O,O-B-O,X-O-X,L,stimuli/blue-L.png,mB-M,m0,stimuli/m0_w0_O-B-O.png,stimuli/m0_wW-R_O-B-O.png,stimuli/m0_none_O-B-O.png,stimuli/mW-R_none_O-B-O.png,stimuli/mB-M_none_O-B-O.png,stimuli/mB-M_none_O-B-O.png,stimuli/mB-M_none_X-O-X.png,stimuli/mW-L_none_X-O-X.png,stimuli/m0_none_X-O-X.png,stimuli/m0_wW-L_X-O-X.png,1,26,54,27,,,,,,,,,495.24744560953695,501.8985529236961,502.6619757844601,502.6619757844601,502.6619757844601,503.5472644843394,503.5472644843394,right,0.4522815125528723,496.3113151558209,S2,T-M,2023-01-25_13h44.39.511,knowing_that_K_ONLY,2022.2.5,60.01158960467836,
Does Anna know that the book is here?,Does Anna think that the book is here?,Is the book here?,early,20,no_2,no_K,0,0,0,no,X-O-X,O-O-X,X-O-X,L,stimuli/blue-L.png,mB-L,m0,stimuli/m0_w0_X-O-X.png,stimuli/m0_wW-R_X-O-X.png,stimuli/m0_none_X-O-X.png,stimuli/mW-R_none_X-O-X.png,stimuli/mB-L_none_X-O-X.png,stimuli/mB-L_none_O-O-X.png,stimuli/mB-L_none_X-O-X.png,stimuli/mW-L_none_X-O-X.png,stimuli/m0_none_X-O-X.png,stimuli/m0_wW-L_X-O-X.png,1,27,55,19,,,,,,,,,504.030586279463,510.7039428560529,511.4233455088688,511.4233455088688,511.4233455088688,512.3308706389507,512.3308706389507,right,0.5194049592828378,505.0864996012533,S2,T-M,2023-01-25_13h44.39.511,knowing_that_K_ONLY,2022.2.5,60.01158960467836,
Does Anna know that the book is here?,Does Anna think that the book is here?,Is the book here?,early,7,per_7,per_K,1,1,1,switch,B-X-O,O-X-B,X-X-B,R,stimuli/blue-R.png,mB-R,m0,stimuli/m0_w0_B-X-O.png,stimuli/m0_wW-R_B-X-O.png,stimuli/m0_none_B-X-O.png,stimuli/mW-R_none_B-X-O.png,stimuli/mB-R_none_B-X-O.png,stimuli/mB-R_none_O-X-B.png,stimuli/mB-R_none_X-X-B.png,stimuli/mW-L_none_X-X-B.png,stimuli/m0_none_X-X-B.png,stimuli/m0_wW-L_X-X-B.png,2,0,56,6,,,,,,,,,512.8807881606044,519.5319144021487,520.2708821621491,520.2708821621491,520.2708821621491,521.1807873264188,521.1807873264188,left,0.10712040227372199,513.9387350498,S2,T-M,2023-01-25_13h44.39.511,knowing_that_K_ONLY,2022.2.5,60.01158960467836,
Does Anna know that the book is here?,Does Anna think that the book is here?,Is the book here?,early,25,no_7,no_K,0,0,0,hide,B-X-X,B-O-O,O-X-X,M,stimuli/blue-M.png,mB-L,m0,stimuli/m0_w0_B-X-X.png,stimuli/m0_wW-R_B-X-X.png,stimuli/m0_none_B-X-X.png,stimuli/mW-R_none_B-X-X.png,stimuli/mB-L_none_B-X-X.png,stimuli/mB-L_none_B-O-O.png,stimuli/mB-L_none_O-X-X.png,stimuli/mW-L_none_O-X-X.png,stimuli/m0_none_O-X-X.png,stimuli/m0_wW-L_O-X-X.png,2,1,57,24,,,,,,,,,521.3141411056276,527.9655708264327,528.724453368457,528.724453368457,528.724453368457,529.6144036503974,529.6144036503974,right,0.22561973915435374,522.3752956996905,S2,T-M,2023-01-25_13h44.39.511,knowing_that_K_ONLY,2022.2.5,60.01158960467836,
Does Anna know that the book is here?,Does Anna think that the book is here?,Is the book here?,late,16,mem_7,mem_K,1,1,1,switch,B-X-O,O-X-B,O-X-X,R,stimuli/blue-R.png,mB-M,m0,stimuli/m0_w0_B-X-O.png,stimuli/mW-R_w0_B-X-O.png,stimuli/mB-M_w0_B-X-O.png,stimuli/mB-M_w0_O-X-B.png,stimuli/mB-M_w0_O-X-X.png,stimuli/mW-L_w0_O-X-X.png,stimuli/m0_wW-R_O-X-X.png,stimuli/m0_none_O-X-X.png,stimuli/m0_none_O-X-X.png,stimuli/m0_wW-L_O-X-X.png,2,2,58,15,,,,,,,,,529.8643438207218,536.5412205639295,537.2753442050889,537.2753442050889,537.2753442050889,538.1641428058501,538.1641428058501,left,0.36469952343031764,530.9273606737843,S2,T-M,2023-01-25_13h44.39.511,knowing_that_K_ONLY,2022.2.5,60.01158960467836,
Does Anna know that the book is here?,Does Anna think that the book is here?,Is the book here?,early,26,no_8,no_K,0,0,0,hide,X-B-O,O-B-O,X-O-X,R,stimuli/blue-R.png,mB-L,m0,stimuli/m0_w0_X-B-O.png,stimuli/m0_wW-R_X-B-O.png,stimuli/m0_none_X-B-O.png,stimuli/mW-R_none_X-B-O.png,stimuli/mB-L_none_X-B-O.png,stimuli/mB-L_none_O-B-O.png,stimuli/mB-L_none_X-O-X.png,stimuli/mW-L_none_X-O-X.png,stimuli/m0_none_X-O-X.png,stimuli/m0_wW-L_X-O-X.png,2,3,59,25,,,,,,,,,538.5477052670904,545.1988789874595,545.9371855733916,545.9371855733916,545.9371855733916,546.8474628686672,546.8474628686672,right,0.12059635599143803,539.6115722469985,S2,T-M,2023-01-25_13h44.39.511,knowing_that_K_ONLY,2022.2.5,60.01158960467836,
Does Anna know that the book is here?,Does Anna think that the book is here?,Is the book here?,early,8,per_8,per_K,1,1,1,switch,O-X-B,B-X-O,B-X-X,L,stimuli/blue-L.png,mB-L,m0,stimuli/m0_w0_O-X-B.png,stimuli/m0_wW-R_O-X-B.png,stimuli/m0_none_O-X-B.png,stimuli/mW-R_none_O-X-B.png,stimuli/mB-L_none_O-X-B.png,stimuli/mB-L_none_B-X-O.png,stimuli/mB-L_none_B-X-X.png,stimuli/mW-L_none_B-X-X.png,stimuli/m0_none_B-X-X.png,stimuli/m0_wW-L_B-X-X.png,2,4,60,7,,,,,,,,,546.9974393538432,553.6489399720449,554.387809566455,554.387809566455,554.387809566455,555.2974641839974,555.2974641839974,left,0.09446313686203212,548.0441321680555,S2,T-M,2023-01-25_13h44.39.511,knowing_that_K_ONLY,2022.2.5,60.01158960467836,
Does Anna know that the book is here?,Does Anna think that the book is here?,Is the book here?,late,11,mem_2,mem_K,1,1,1,no,O-B-O,O-B-X,O-X-X,M,stimuli/blue-M.png,mB-L,m0,stimuli/m0_w0_O-B-O.png,stimuli/mW-R_w0_O-B-O.png,stimuli/mB-L_w0_O-B-O.png,stimuli/mB-L_w0_O-B-X.png,stimuli/mB-L_w0_O-X-X.png,stimuli/mW-L_w0_O-X-X.png,stimuli/m0_wW-R_O-X-X.png,stimuli/m0_none_O-X-X.png,stimuli/m0_none_O-X-X.png,stimuli/m0_wW-L_O-X-X.png,2,5,61,10,,,,,,,,,555.4141464950517,562.0669348147931,562.8044034644263,562.8044034644263,562.8044034644263,563.714006753522,563.714006753522,left,0.04629463085439056,556.4725085028913,S2,T-M,2023-01-25_13h44.39.511,knowing_that_K_ONLY,2022.2.5,60.01158960467836,
Does Anna know that the book is here?,Does Anna think that the book is here?,Is the book here?,early,1,per_1,per_K,1,1,1,no,B-X-X,B-O-X,B-X-X,L,stimuli/blue-L.png,mB-M,m0,stimuli/m0_w0_B-X-X.png,stimuli/m0_wW-R_B-X-X.png,stimuli/m0_none_B-X-X.png,stimuli/mW-R_none_B-X-X.png,stimuli/mB-M_none_B-X-X.png,stimuli/mB-M_none_B-O-X.png,stimuli/mB-M_none_B-X-X.png,stimuli/mW-L_none_B-X-X.png,stimuli/m0_none_B-X-X.png,stimuli/m0_wW-L_B-X-X.png,2,6,62,0,,,,,,,,,563.780927132233,570.4328983677551,571.1924831465585,571.1924831465585,571.1924831465585,572.0808371150633,572.0808371150633,left,0.17528389091603458,564.839086392778,S2,T-M,2023-01-25_13h44.39.511,knowing_that_K_ONLY,2022.2.5,60.01158960467836,
Does Anna know that the book is here?,Does Anna think that the book is here?,Is the book here?,early,22,no_4,no_K,0,0,0,no,O-X-X,O-O-X,O-X-X,M,stimuli/blue-M.png,mB-M,m0,stimuli/m0_w0_O-X-X.png,stimuli/m0_wW-R_O-X-X.png,stimuli/m0_none_O-X-X.png,stimuli/mW-R_none_O-X-X.png,stimuli/mB-M_none_O-X-X.png,stimuli/mB-M_none_O-O-X.png,stimuli/mB-M_none_O-X-X.png,stimuli/mW-L_none_O-X-X.png,stimuli/m0_none_O-X-X.png,stimuli/m0_wW-L_O-X-X.png,2,7,63,21,,,,,,,,,572.2810631524771,578.9549073489616,579.694180192193,579.694180192193,579.694180192193,580.5808631000109,580.5808631000109,right,0.45200594316702336,573.3433087961748,S2,T-M,2023-01-25_13h44.39.511,knowing_that_K_ONLY,2022.2.5,60.01158960467836,
Does Anna know that the book is here?,Does Anna think that the book is here?,Is the book here?,early,9,per_9,per_K,1,1,1,switch,X-O-B,X-B-O,X-B-X,M,stimuli/blue-M.png,mB-R,m0,stimuli/m0_w0_X-O-B.png,stimuli/m0_wW-R_X-O-B.png,stimuli/m0_none_X-O-B.png,stimuli/mW-R_none_X-O-B.png,stimuli/mB-R_none_X-O-B.png,stimuli/mB-R_none_X-B-O.png,stimuli/mB-R_none_X-B-X.png,stimuli/mW-L_none_X-B-X.png,stimuli/m0_none_X-B-X.png,stimuli/m0_wW-L_X-B-X.png,2,8,64,8,,,,,,,,,581.0641662885901,587.7158301953459,588.4535551661393,588.4535551661393,588.4535551661393,589.3642700362252,589.3642700362252,left,0.5395731753669679,582.1276720447931,S2,T-M,2023-01-25_13h44.39.511,knowing_that_K_ONLY,2022.2.5,60.01158960467836,
Does Anna know that the book is here?,Does Anna think that the book is here?,Is the book here?,late,18,mem_9,mem_K,1,1,1,switch,X-O-B,X-B-O,X-X-O,M,stimuli/blue-M.png,mB-L,m0,stimuli/m0_w0_X-O-B.png,stimuli/mW-R_w0_X-O-B.png,stimuli/mB-L_w0_X-O-B.png,stimuli/mB-L_w0_X-B-O.png,stimuli/mB-L_w0_X-X-O.png,stimuli/mW-L_w0_X-X-O.png,stimuli/m0_wW-R_X-X-O.png,stimuli/m0_none_X-X-O.png,stimuli/m0_none_X-X-O.png,stimuli/m0_wW-L_X-X-O.png,2,9,65,17,,,,,,,,,589.9308814819669,596.5809128244873,597.3195318720536,597.3195318720536,597.3195318720536,598.2305617701495,598.2305617701495,left,0.07427888072561473,590.9880770515883,S2,T-M,2023-01-25_13h44.39.511,knowing_that_K_ONLY,2022.2.5,60.01158960467836,
Does Anna know that the book is here?,Does Anna think that the book is here?,Is the book here?,early,3,per_3,per_K,1,1,1,no,O-B-X,O-B-O,O-B-X,M,stimuli/blue-M.png,mB-R,m0,stimuli/m0_w0_O-B-X.png,stimuli/m0_wW-R_O-B-X.png,stimuli/m0_none_O-B-X.png,stimuli/mW-R_none_O-B-X.png,stimuli/mB-R_none_O-B-X.png,stimuli/mB-R_none_O-B-O.png,stimuli/mB-R_none_O-B-X.png,stimuli/mW-L_none_O-B-X.png,stimuli/m0_none_O-B-X.png,stimuli/m0_wW-L_O-B-X.png,2,10,66,2,,,,,,,,,598.33056715969,604.9825974229025,605.7209749061149,605.7209749061149,605.7209749061149,606.6309775945265,606.6309775945265,left,0.12112503848038614,599.3887280242052,S2,T-M,2023-01-25_13h44.39.511,knowing_that_K_ONLY,2022.2.5,60.01158960467836,
Does Anna know that the book is here?,Does Anna think that the book is here?,Is the book here?,early,27,no_9,no_K,0,0,0,hide,X-X-B,O-O-B,X-X-O,L,stimuli/blue-L.png,mB-M,m0,stimuli/m0_w0_X-X-B.png,stimuli/m0_wW-R_X-X-B.png,stimuli/m0_none_X-X-B.png,stimuli/mW-R_none_X-X-B.png,stimuli/mB-M_none_X-X-B.png,stimuli/mB-M_none_O-O-B.png,stimuli/mB-M_none_X-X-O.png,stimuli/mW-L_none_X-X-O.png,stimuli/m0_none_X-X-O.png,stimuli/m0_wW-L_X-X-O.png,2,11,67,26,,,,,,,,,606.7811279546004,613.4325903973076,614.1709319506772,614.1709319506772,614.1709319506772,615.0809843634488,615.0809843634488,right,0.45524412428494543,607.8426456972957,S2,T-M,2023-01-25_13h44.39.511,knowing_that_K_ONLY,2022.2.5,60.01158960467836,
Does Anna know that the book is here?,Does Anna think that the book is here?,Is the book here?,late,17,mem_8,mem_K,1,1,1,switch,O-X-B,B-X-O,X-X-O,L,stimuli/blue-L.png,mB-M,m0,stimuli/m0_w0_O-X-B.png,stimuli/mW-R_w0_O-X-B.png,stimuli/mB-M_w0_O-X-B.png,stimuli/mB-M_w0_B-X-O.png,stimuli/mB-M_w0_X-X-O.png,stimuli/mW-L_w0_X-X-O.png,stimuli/m0_wW-R_X-X-O.png,stimuli/m0_none_X-X-O.png,stimuli/m0_none_X-X-O.png,stimuli/m0_wW-L_X-X-O.png,2,12,68,16,,,,,,,,,615.5642683038022,622.2367866232526,622.9753995756619,622.9753995756619,622.9753995756619,623.8644095852505,623.8644095852505,left,0.32808311795815825,616.6288278964348,S2,T-M,2023-01-25_13h44.39.511,knowing_that_K_ONLY,2022.2.5,60.01158960467836,
Does Anna know that the book is here?,Does Anna think that the book is here?,Is the book here?,early,24,no_6,no_K,0,0,0,no,X-X-X,X-X-O,X-X-X,R,stimuli/blue-R.png,mB-R,m0,stimuli/m0_w0_X-X-X.png,stimuli/m0_wW-R_X-X-X.png,stimuli/m0_none_X-X-X.png,stimuli/mW-R_none_X-X-X.png,stimuli/mB-R_none_X-X-X.png,stimuli/mB-R_none_X-X-O.png,stimuli/mB-R_none_X-X-X.png,stimuli/mW-L_none_X-X-X.png,stimuli/m0_none_X-X-X.png,stimuli/m0_wW-L_X-X-X.png,2,13,69,23,,,,,,,,,624.2144183431519,630.8639582160395,631.6015522994567,631.6015522994567,631.6015522994567,632.5143126066541,632.5143126066541,right,0.18223985307849944,625.275305067189,S2,T-M,2023-01-25_13h44.39.511,knowing_that_K_ONLY,2022.2.5,60.01158960467836,
Does Anna know that the book is here?,Does Anna think that the book is here?,Is the book here?,late,4,per_4,per_K,1,1,1,no,O-X-B,O-O-B,O-X-B,R,stimuli/blue-R.png,mB-M,m0,stimuli/m0_w0_O-X-B.png,stimuli/mW-R_w0_O-X-B.png,stimuli/mB-M_w0_O-X-B.png,stimuli/mB-M_w0_O-O-B.png,stimuli/mB-M_w0_O-X-B.png,stimuli/mW-L_w0_O-X-B.png,stimuli/m0_wW-R_O-X-B.png,stimuli/m0_none_O-X-B.png,stimuli/m0_none_O-X-B.png,stimuli/m0_wW-L_O-X-B.png,2,14,70,3,,,,,,,,,632.7145829149522,639.3900173297152,640.1276656286791,640.1276656286791,640.1276656286791,641.0144813488005,641.0144813488005,left,0.010400351951830089,633.7751096984139,S2,T-M,2023-01-25_13h44.39.511,knowing_that_K_ONLY,2022.2.5,60.01158960467836,
Does Anna know that the book is here?,Does Anna think that the book is here?,Is the book here?,late,6,per_6,per_K,1,1,1,no,X-B-X,O-B-X,X-B-X,M,stimuli/blue-M.png,mB-L,m0,stimuli/m0_w0_X-B-X.png,stimuli/mW-R_w0_X-B-X.png,stimuli/mB-L_w0_X-B-X.png,stimuli/mB-L_w0_O-B-X.png,stimuli/mB-L_w0_X-B-X.png,stimuli/mW-L_w0_X-B-X.png,stimuli/m0_wW-R_X-B-X.png,stimuli/m0_none_X-B-X.png,stimuli/m0_none_X-B-X.png,stimuli/m0_wW-L_X-B-X.png,2,15,71,5,,,,,,,,,641.0476914725732,647.7216380051104,648.4636225923896,648.4636225923896,648.4636225923896,649.3476572750369,649.3476572750369,left,0.13295270851813257,642.1039422785398,S2,T-M,2023-01-25_13h44.39.511,knowing_that_K_ONLY,2022.2.5,60.01158960467836,
Does Anna know that the book is here?,Does Anna think that the book is here?,Is the book here?,early,21,no_3,no_K,0,0,0,no,X-X-O,X-O-O,X-X-O,M,stimuli/blue-M.png,mB-M,m0,stimuli/m0_w0_X-X-O.png,stimuli/m0_wW-R_X-X-O.png,stimuli/m0_none_X-X-O.png,stimuli/mW-R_none_X-X-O.png,stimuli/mB-M_none_X-X-O.png,stimuli/mB-M_none_X-O-O.png,stimuli/mB-M_none_X-X-O.png,stimuli/mW-L_none_X-X-O.png,stimuli/m0_none_X-X-O.png,stimuli/m0_wW-L_X-X-O.png,2,16,72,20,,,,,,,,,649.497739625047,656.147442465648,656.9078350253403,656.9078350253403,656.9078350253403,657.7974090059288,657.7974090059288,right,0.20273304218426347,650.6083032687893,S2,T-M,2023-01-25_13h44.39.511,knowing_that_K_ONLY,2022.2.5,60.01158960467836,
Does Anna know that the book is here?,Does Anna think that the book is here?,Is the book here?,early,20,no_2,no_K,0,0,0,no,X-O-X,O-O-X,X-O-X,L,stimuli/blue-L.png,mB-L,m0,stimuli/m0_w0_X-O-X.png,stimuli/m0_wW-R_X-O-X.png,stimuli/m0_none_X-O-X.png,stimuli/mW-R_none_X-O-X.png,stimuli/mB-L_none_X-O-X.png,stimuli/mB-L_none_O-O-X.png,stimuli/mB-L_none_X-O-X.png,stimuli/mW-L_none_X-O-X.png,stimuli/m0_none_X-O-X.png,stimuli/m0_wW-L_X-O-X.png,2,17,73,19,,,,,,,,,658.0307620792883,664.7060774763813,665.4447263586335,665.4447263586335,665.4447263586335,666.3310932759196,666.3310932759196,right,0.1490342206088826,659.0830910739023,S2,T-M,2023-01-25_13h44.39.511,knowing_that_K_ONLY,2022.2.5,60.01158960467836,
Does Anna know that the book is here?,Does Anna think that the book is here?,Is the book here?,early,19,no_1,no_K,0,0,0,no,X-X-X,O-X-X,X-X-X,L,stimuli/blue-L.png,mB-L,m0,stimuli/m0_w0_X-X-X.png,stimuli/m0_wW-R_X-X-X.png,stimuli/m0_none_X-X-X.png,stimuli/mW-R_none_X-X-X.png,stimuli/mB-L_none_X-X-X.png,stimuli/mB-L_none_O-X-X.png,stimuli/mB-L_none_X-X-X.png,stimuli/mW-L_none_X-X-X.png,stimuli/m0_none_X-X-X.png,stimuli/m0_wW-L_X-X-X.png,2,18,74,18,,,,,,,,,666.4976600660011,673.1483577153413,673.907938002958,673.907938002958,673.907938002958,674.7978093675338,674.7978093675338,right,0.4113028337014839,667.5560230361298,S2,T-M,2023-01-25_13h44.39.511,knowing_that_K_ONLY,2022.2.5,60.01158960467836,
Does Anna know that the book is here?,Does Anna think that the book is here?,Is the book here?,late,10,mem_1,mem_K,1,1,1,no,O-X-B,X-X-B,X-X-X,R,stimuli/blue-R.png,mB-M,m0,stimuli/m0_w0_O-X-B.png,stimuli/mW-R_w0_O-X-B.png,stimuli/mB-M_w0_O-X-B.png,stimuli/mB-M_w0_X-X-B.png,stimuli/mB-M_w0_X-X-X.png,stimuli/mW-L_w0_X-X-X.png,stimuli/m0_wW-R_X-X-X.png,stimuli/m0_none_X-X-X.png,stimuli/m0_none_X-X-X.png,stimuli/m0_wW-L_X-X-X.png,2,19,75,9,,,,,,,,,675.2312165282201,681.9028818336083,682.6428633297328,682.6428633297328,682.6428633297328,683.5310892979614,683.5310892979614,left,0.23716927331406623,676.2957257548114,S2,T-M,2023-01-25_13h44.39.511,knowing_that_K_ONLY,2022.2.5,60.01158960467836,
Does Anna know that the book is here?,Does Anna think that the book is here?,Is the book here?,early,28,no_10,no_K,0,0,0,hide,O-B-O,O-B-O,X-O-X,L,stimuli/blue-L.png,mB-M,m0,stimuli/m0_w0_O-B-O.png,stimuli/m0_wW-R_O-B-O.png,stimuli/m0_none_O-B-O.png,stimuli/mW-R_none_O-B-O.png,stimuli/mB-M_none_O-B-O.png,stimuli/mB-M_none_O-B-O.png,stimuli/mB-M_none_X-O-X.png,stimuli/mW-L_none_X-O-X.png,stimuli/m0_none_X-O-X.png,stimuli/m0_wW-L_X-O-X.png,2,20,76,27,,,,,,,,,683.7977336581098,690.4478115169331,691.1865951361833,691.1865951361833,691.1865951361833,692.0977726035053,692.0977726035053,right,0.21549264364875853,684.8603815882234,S2,T-M,2023-01-25_13h44.39.511,knowing_that_K_ONLY,2022.2.5,60.01158960467836,
Does Anna know that the book is here?,Does Anna think that the book is here?,Is the book here?,late,14,mem_5,mem_K,1,1,1,no,O-B-X,O-B-X,O-X-X,M,stimuli/blue-M.png,mB-L,m0,stimuli/m0_w0_O-B-X.png,stimuli/mW-R_w0_O-B-X.png,stimuli/mB-L_w0_O-B-X.png,stimuli/mB-L_w0_O-B-X.png,stimuli/mB-L_w0_O-X-X.png,stimuli/mW-L_w0_O-X-X.png,stimuli/m0_wW-R_O-X-X.png,stimuli/m0_none_O-X-X.png,stimuli/m0_none_O-X-X.png,stimuli/m0_wW-L_O-X-X.png,2,21,77,13,,,,,,,,,692.3311317721382,698.9821543945,699.7182891470147,699.7182891470147,699.7182891470147,700.6310712688137,700.6310712688137,left,0.4576418027281761,693.3896240257891,S2,T-M,2023-01-25_13h44.39.511,knowing_that_K_ONLY,2022.2.5,60.01158960467836,
Does Anna know that the book is here?,Does Anna think that the book is here?,Is the book here?,early,23,no_5,no_K,0,0,0,no,X-O-X,X-O-O,X-O-X,R,stimuli/blue-R.png,mB-R,m0,stimuli/m0_w0_X-O-X.png,stimuli/m0_wW-R_X-O-X.png,stimuli/m0_none_X-O-X.png,stimuli/mW-R_none_X-O-X.png,stimuli/mB-R_none_X-O-X.png,stimuli/mB-R_none_X-O-O.png,stimuli/mB-R_none_X-O-X.png,stimuli/mW-L_none_X-O-X.png,stimuli/m0_none_X-O-X.png,stimuli/m0_wW-L_X-O-X.png,2,22,78,22,,,,,,,,,701.1143818359124,707.7863567157183,708.5031121056527,708.5031121056527,708.5031121056527,709.4143887010869,709.4143887010869,right,0.06599960790481418,702.1736167473719,S2,T-M,2023-01-25_13h44.39.511,knowing_that_K_ONLY,2022.2.5,60.01158960467836,
Does Anna know that the book is here?,Does Anna think that the book is here?,Is the book here?,early,2,per_2,per_K,1,1,1,no,X-X-B,O-X-B,X-X-B,R,stimuli/blue-R.png,mB-L,m0,stimuli/m0_w0_X-X-B.png,stimuli/m0_wW-R_X-X-B.png,stimuli/m0_none_X-X-B.png,stimuli/mW-R_none_X-X-B.png,stimuli/mB-L_none_X-X-B.png,stimuli/mB-L_none_O-X-B.png,stimuli/mB-L_none_X-X-B.png,stimuli/mW-L_none_X-X-B.png,stimuli/m0_none_X-X-B.png,stimuli/m0_wW-L_X-X-B.png,2,23,79,1,,,,,,,,,709.4977146025049,716.1494490857003,716.8908000879455,716.8908000879455,716.8908000879455,717.7977192220278,717.7977192220278,left,0.4263115820940584,710.5567919999594,S2,T-M,2023-01-25_13h44.39.511,knowing_that_K_ONLY,2022.2.5,60.01158960467836,
Does Anna know that the book is here?,Does Anna think that the book is here?,Is the book here?,late,12,mem_3,mem_K,1,1,1,no,X-O-B,X-O-B,X-O-X,R,stimuli/blue-R.png,mB-M,m0,stimuli/m0_w0_X-O-B.png,stimuli/mW-R_w0_X-O-B.png,stimuli/mB-M_w0_X-O-B.png,stimuli/mB-M_w0_X-O-B.png,stimuli/mB-M_w0_X-O-X.png,stimuli/mW-L_w0_X-O-X.png,stimuli/m0_wW-R_X-O-X.png,stimuli/m0_none_X-O-X.png,stimuli/m0_none_X-O-X.png,stimuli/m0_wW-L_X-O-X.png,2,24,80,11,,,,,,,,,718.2478045875905,724.9218095061369,725.659802667913,725.659802667913,725.659802667913,726.5479128264124,726.5479128264124,left,0.5083651804598048,719.3037990722805,S2,T-M,2023-01-25_13h44.39.511,knowing_that_K_ONLY,2022.2.5,60.01158960467836,
Does Anna know that the book is here?,Does Anna think that the book is here?,Is the book here?,late,13,mem_4,mem_K,1,1,1,no,B-X-O,B-X-O,X-X-O,L,stimuli/blue-L.png,mB-M,m0,stimuli/m0_w0_B-X-O.png,stimuli/mW-R_w0_B-X-O.png,stimuli/mB-M_w0_B-X-O.png,stimuli/mB-M_w0_B-X-O.png,stimuli/mB-M_w0_X-X-O.png,stimuli/mW-L_w0_X-X-O.png,stimuli/m0_wW-R_X-X-O.png,stimuli/m0_none_X-X-O.png,stimuli/m0_none_X-X-O.png,stimuli/m0_wW-L_X-X-O.png,2,25,81,12,,,,,,,,,727.0812621784862,733.7562355999835,734.4923626531381,734.4923626531381,734.4923626531381,735.3811352689518,735.3811352689518,left,0.33160553011111915,728.1455725074047,S2,T-M,2023-01-25_13h44.39.511,knowing_that_K_ONLY,2022.2.5,60.01158960467836,
Does Anna know that the book is here?,Does Anna think that the book is here?,Is the book here?,late,5,per_5,per_K,1,1,1,no,X-B-O,O-B-O,X-B-O,M,stimuli/blue-M.png,mB-L,m0,stimuli/m0_w0_X-B-O.png,stimuli/mW-R_w0_X-B-O.png,stimuli/mB-L_w0_X-B-O.png,stimuli/mB-L_w0_O-B-O.png,stimuli/mB-L_w0_X-B-O.png,stimuli/mW-L_w0_X-B-O.png,stimuli/m0_wW-R_X-B-O.png,stimuli/m0_none_X-B-O.png,stimuli/m0_none_X-B-O.png,stimuli/m0_wW-L_X-B-O.png,2,26,82,4,,,,,,,,,735.7311491597211,742.4060629119631,743.1195146769751,743.1195146769751,743.1195146769751,744.0312387918821,744.0312387918821,left,0.408779721474275,736.796494718641,S2,T-M,2023-01-25_13h44.39.511,knowing_that_K_ONLY,2022.2.5,60.01158960467836,
Does Anna know that the book is here?,Does Anna think that the book is here?,Is the book here?,late,15,mem_6,mem_K,1,1,1,no,X-B-O,X-B-X,X-X-X,M,stimuli/blue-M.png,mB-R,m0,stimuli/m0_w0_X-B-O.png,stimuli/mW-R_w0_X-B-O.png,stimuli/mB-R_w0_X-B-O.png,stimuli/mB-R_w0_X-B-X.png,stimuli/mB-R_w0_X-X-X.png,stimuli/mW-L_w0_X-X-X.png,stimuli/m0_wW-R_X-X-X.png,stimuli/m0_none_X-X-X.png,stimuli/m0_none_X-X-X.png,stimuli/m0_wW-L_X-X-X.png,2,27,83,14,,,,,,,,,744.4645003082696,751.1377600023989,751.8744157382753,751.8744157382753,751.8744157382753,752.7644917749567,752.7644917749567,left,1.2359954566927627,745.5245946499053,S2,T-M,2023-01-25_13h44.39.511,knowing_that_K_ONLY,2022.2.5,60.01158960467836,
