K_text,B_text,T_text,Anna_exit,trial_num,trial_code,cond,K_hit,B_hit,T_hit,book_move,start_shelf,mid_shelf,end_shelf,rectangle,rectangle_path,Todd_mid,Todd_final,frame_1,frame_2,frame_3,frame_4,frame_5,frame_6,frame_7,frame_8,frame_9,frame_10,trials.thisRepN,trials.thisTrialN,trials.thisN,trials.thisIndex,frames.thisRepN,frames.thisTrialN,frames.thisN,frames.thisIndex,sessionInst.started,startSession.started,startSession.keys,startSession.rt,crossText.started,movingImage.started,staticImage.started,promptText3.started,rectImage.started,respText.started,keyResp.started,keyResp.keys,keyResp.rt,crossText.stopped,subject,session,date,expName,psychopyVersion,frameRate,
,,,,,,,,,,,,,,,,,,,,,,,,,,,,,,,,,,,,14.3763761628652,14.3763761628652,left,32.77002953423653,,,,,,,,,,,S3,B-M,2023-01-26_09h04.07.562,knowing_that_K_ONLY,2022.2.5,59.981565911421896,
Does Anna know that the book is here?,Does Anna think that the book is here?,Is the book here?,late,12,mem_3,mem_K,1,1,1,no,X-O-B,X-O-B,X-O-X,R,stimuli/blue-R.png,mB-M,m0,stimuli/m0_w0_X-O-B.png,stimuli/mW-R_w0_X-O-B.png,stimuli/mB-M_w0_X-O-B.png,stimuli/mB-M_w0_X-O-B.png,stimuli/mB-M_w0_X-O-X.png,stimuli/mW-L_w0_X-O-X.png,stimuli/m0_wW-R_X-O-X.png,stimuli/m0_none_X-O-X.png,stimuli/m0_none_X-O-X.png,stimuli/m0_wW-L_X-O-X.png,0,0,0,11,,,,,,,,,47.212073597242124,53.84961288748309,54.60995540197473,54.60995540197473,54.60995540197473,55.47589008277282,55.47589008277282,left,0.6782492018537596,,S3,B-M,2023-01-26_09h04.07.562,knowing_that_K_ONLY,2022.2.5,59.981565911421896,
Does Anna know that the book is here?,Does Anna think that the book is here?,Is the book here?,late,5,per_5,per_K,1,1,1,no,X-B-O,O-B-O,X-B-O,M,stimuli/blue-M.png,mB-L,m0,stimuli/m0_w0_X-B-O.png,stimuli/mW-R_w0_X-B-O.png,stimuli/mB-L_w0_X-B-O.png,stimuli/mB-L_w0_O-B-O.png,stimuli/mB-L_w0_X-B-O.png,stimuli/mW-L_w0_X-B-O.png,stimuli/m0_wW-R_X-B-O.png,stimuli/m0_none_X-B-O.png,stimuli/m0_none_X-B-O.png,stimuli/m0_wW-L_X-B-O.png,0,1,1,4,,,,,,,,,56.175778956734575,62.85232366924174,63.595603657420725,63.595603657420725,63.595603657420725,64.47562830790412,64.47562830790412,left,0.4296313797822222,57.23450218816288,S3,B-M,2023-01-26_09h04.07.562,knowing_that_K_ONLY,2022.2.5,59.981565911421896,
Does Anna know that the book is here?,Does Anna think that the book is here?,Is the book here?,early,8,per_8,per_K,1,1,1,switch,O-X-B,B-X-O,B-X-X,L,stimuli/blue-L.png,mB-L,m0,stimuli/m0_w0_O-X-B.png,stimuli/m0_wW-R_O-X-B.png,stimuli/m0_none_O-X-B.png,stimuli/mW-R_none_O-X-B.png,stimuli/mB-L_none_O-X-B.png,stimuli/mB-L_none_B-X-O.png,stimuli/mB-L_none_B-X-X.png,stimuli/mW-L_none_B-X-X.png,stimuli/m0_none_B-X-X.png,stimuli/m0_wW-L_B-X-X.png,0,2,2,7,,,,,,,,,64.92593695200048,71.59752751037013,72.31806772912387,72.31806772912387,72.31806772912387,73.2258472556714,73.2258472556714,left,0.5198866166174412,65.98206264502369,S3,B-M,2023-01-26_09h04.07.562,knowing_that_K_ONLY,2022.2.5,59.981565911421896,
Does Anna know that the book is here?,Does Anna think that the book is here?,Is the book here?,late,15,mem_6,mem_K,1,1,1,no,X-B-O,X-B-X,X-X-X,M,stimuli/blue-M.png,mB-R,m0,stimuli/m0_w0_X-B-O.png,stimuli/mW-R_w0_X-B-O.png,stimuli/mB-R_w0_X-B-O.png,stimuli/mB-R_w0_X-B-X.png,stimuli/mB-R_w0_X-X-X.png,stimuli/mW-L_w0_X-X-X.png,stimuli/m0_wW-R_X-X-X.png,stimuli/m0_none_X-X-X.png,stimuli/m0_none_X-X-X.png,stimuli/m0_wW-L_X-X-X.png,0,3,3,14,,,,,,,,,73.77597394050099,80.4489497244358,81.18984454544261,81.18984454544261,81.18984454544261,82.07582232926507,82.07582232926507,left,0.3258116476936266,74.83366611250676,S3,B-M,2023-01-26_09h04.07.562,knowing_that_K_ONLY,2022.2.5,59.981565911421896,
Does Anna know that the book is here?,Does Anna think that the book is here?,Is the book here?,early,28,no_10,no_K,0,0,0,hide,O-B-O,O-B-O,X-O-X,L,stimuli/blue-L.png,mB-M,m0,stimuli/m0_w0_O-B-O.png,stimuli/m0_wW-R_O-B-O.png,stimuli/m0_none_O-B-O.png,stimuli/mW-R_none_O-B-O.png,stimuli/mB-M_none_O-B-O.png,stimuli/mB-M_none_O-B-O.png,stimuli/mB-M_none_X-O-X.png,stimuli/mW-L_none_X-O-X.png,stimuli/m0_none_X-O-X.png,stimuli/m0_wW-L_X-O-X.png,0,4,4,27,,,,,,,,,82.4256623450201,89.0770054491004,89.83797064144164,89.83797064144164,89.83797064144164,90.72582672419958,90.72582672419958,right,0.9483989718137309,83.48611406073906,S3,B-M,2023-01-26_09h04.07.562,knowing_that_K_ONLY,2022.2.5,59.981565911421896,
Does Anna know that the book is here?,Does Anna think that the book is here?,Is the book here?,early,25,no_7,no_K,0,0,0,hide,B-X-X,B-O-O,O-X-X,M,stimuli/blue-M.png,mB-L,m0,stimuli/m0_w0_B-X-X.png,stimuli/m0_wW-R_B-X-X.png,stimuli/m0_none_B-X-X.png,stimuli/mW-R_none_B-X-X.png,stimuli/mB-L_none_B-X-X.png,stimuli/mB-L_none_B-O-O.png,stimuli/mB-L_none_O-X-X.png,stimuli/mW-L_none_O-X-X.png,stimuli/m0_none_O-X-X.png,stimuli/m0_wW-L_O-X-X.png,0,5,5,24,,,,,,,,,91.6923554672394,98.36769813252613,99.10625141556375,99.10625141556375,99.10625141556375,99.99237612693105,99.99237612693105,right,0.3376887212507427,92.7545664642239,S3,B-M,2023-01-26_09h04.07.562,knowing_that_K_ONLY,2022.2.5,59.981565911421896,
Does Anna know that the book is here?,Does Anna think that the book is here?,Is the book here?,late,11,mem_2,mem_K,1,1,1,no,O-B-O,O-B-X,O-X-X,M,stimuli/blue-M.png,mB-L,m0,stimuli/m0_w0_O-B-O.png,stimuli/mW-R_w0_O-B-O.png,stimuli/mB-L_w0_O-B-O.png,stimuli/mB-L_w0_O-B-X.png,stimuli/mB-L_w0_O-X-X.png,stimuli/mW-L_w0_O-X-X.png,stimuli/m0_wW-R_O-X-X.png,stimuli/m0_none_O-X-X.png,stimuli/m0_none_O-X-X.png,stimuli/m0_wW-L_O-X-X.png,0,6,6,10,,,,,,,,,100.35922413261142,107.03580477496143,107.77123023290187,107.77123023290187,107.77123023290187,108.65932531363796,108.65932531363796,left,0.3110479925526306,101.42158911481965,S3,B-M,2023-01-26_09h04.07.562,knowing_that_K_ONLY,2022.2.5,59.981565911421896,
Does Anna know that the book is here?,Does Anna think that the book is here?,Is the book here?,late,16,mem_7,mem_K,1,1,1,switch,B-X-O,O-X-B,O-X-X,R,stimuli/blue-R.png,mB-M,m0,stimuli/m0_w0_B-X-O.png,stimuli/mW-R_w0_B-X-O.png,stimuli/mB-M_w0_B-X-O.png,stimuli/mB-M_w0_O-X-B.png,stimuli/mB-M_w0_O-X-X.png,stimuli/mW-L_w0_O-X-X.png,stimuli/m0_wW-R_O-X-X.png,stimuli/m0_none_O-X-X.png,stimuli/m0_none_O-X-X.png,stimuli/m0_wW-L_O-X-X.png,0,7,7,15,,,,,,,,,108.99253973620944,115.66557262290735,116.38388935907278,116.38388935907278,116.38388935907278,117.2925985713955,117.2925985713955,left,0.3490409618243575,110.05019277019892,S3,B-M,2023-01-26_09h04.07.562,knowing_that_K_ONLY,2022.2.5,59.981565911421896,
Does Anna know that the book is here?,Does Anna think that the book is here?,Is the book here?,late,13,mem_4,mem_K,1,1,1,no,B-X-O,B-X-O,X-X-O,L,stimuli/blue-L.png,mB-M,m0,stimuli/m0_w0_B-X-O.png,stimuli/mW-R_w0_B-X-O.png,stimuli/mB-M_w0_B-X-O.png,stimuli/mB-M_w0_B-X-O.png,stimuli/mB-M_w0_X-X-O.png,stimuli/mW-L_w0_X-X-O.png,stimuli/m0_wW-R_X-X-O.png,stimuli/m0_none_X-X-O.png,stimuli/m0_none_X-X-O.png,stimuli/m0_wW-L_X-X-O.png,0,8,8,12,,,,,,,,,117.65906803007238,124.30950358370319,125.07212668366265,125.07212668366265,125.07212668366265,125.95922791806515,125.95922791806515,left,0.31534033094067127,118.71452966169454,S3,B-M,2023-01-26_09h04.07.562,knowing_that_K_ONLY,2022.2.5,59.981565911421896,
Does Anna know that the book is here?,Does Anna think that the book is here?,Is the book here?,early,9,per_9,per_K,1,1,1,switch,X-O-B,X-B-O,X-B-X,M,stimuli/blue-M.png,mB-R,m0,stimuli/m0_w0_X-O-B.png,stimuli/m0_wW-R_X-O-B.png,stimuli/m0_none_X-O-B.png,stimuli/mW-R_none_X-O-B.png,stimuli/mB-R_none_X-O-B.png,stimuli/mB-R_none_X-B-O.png,stimuli/mB-R_none_X-B-X.png,stimuli/mW-L_none_X-B-X.png,stimuli/m0_none_X-B-X.png,stimuli/m0_wW-L_X-B-X.png,0,9,9,8,,,,,,,,,126.29241860110778,132.94403919950128,133.70688012440223,133.70688012440223,133.70688012440223,134.59273921127897,134.59273921127897,left,0.24965311726555228,127.34824947663583,S3,B-M,2023-01-26_09h04.07.562,knowing_that_K_ONLY,2022.2.5,59.981565911421896,
Does Anna know that the book is here?,Does Anna think that the book is here?,Is the book here?,early,7,per_7,per_K,1,1,1,switch,B-X-O,O-X-B,X-X-B,R,stimuli/blue-R.png,mB-R,m0,stimuli/m0_w0_B-X-O.png,stimuli/m0_wW-R_B-X-O.png,stimuli/m0_none_B-X-O.png,stimuli/mW-R_none_B-X-O.png,stimuli/mB-R_none_B-X-O.png,stimuli/mB-R_none_O-X-B.png,stimuli/mB-R_none_X-X-B.png,stimuli/mW-L_none_X-X-B.png,stimuli/m0_none_X-X-B.png,stimuli/m0_wW-L_X-X-B.png,0,10,10,6,,,,,,,,,134.8593992907554,141.5356989101274,142.2720505250618,142.2720505250618,142.2720505250618,143.15923324332107,143.15923324332107,left,0.45034848898649216,135.92378212115727,S3,B-M,2023-01-26_09h04.07.562,knowing_that_K_ONLY,2022.2.5,59.981565911421896,
Does Anna know that the book is here?,Does Anna think that the book is here?,Is the book here?,late,17,mem_8,mem_K,1,1,1,switch,O-X-B,B-X-O,X-X-O,L,stimuli/blue-L.png,mB-M,m0,stimuli/m0_w0_O-X-B.png,stimuli/mW-R_w0_O-X-B.png,stimuli/mB-M_w0_O-X-B.png,stimuli/mB-M_w0_B-X-O.png,stimuli/mB-M_w0_X-X-O.png,stimuli/mW-L_w0_X-X-O.png,stimuli/m0_wW-R_X-X-O.png,stimuli/m0_none_X-X-O.png,stimuli/m0_none_X-X-O.png,stimuli/m0_wW-L_X-X-O.png,0,11,11,16,,,,,,,,,143.62575589108746,150.30037097609602,151.03912925196346,151.03912925196346,151.03912925196346,151.92599180922844,151.92599180922844,left,0.28370021493174136,144.68575463350862,S3,B-M,2023-01-26_09h04.07.562,knowing_that_K_ONLY,2022.2.5,59.981565911421896,
Does Anna know that the book is here?,Does Anna think that the book is here?,Is the book here?,early,23,no_5,no_K,0,0,0,no,X-O-X,X-O-O,X-O-X,R,stimuli/blue-R.png,mB-R,m0,stimuli/m0_w0_X-O-X.png,stimuli/m0_wW-R_X-O-X.png,stimuli/m0_none_X-O-X.png,stimuli/mW-R_none_X-O-X.png,stimuli/mB-R_none_X-O-X.png,stimuli/mB-R_none_X-O-O.png,stimuli/mB-R_none_X-O-X.png,stimuli/mW-L_none_X-O-X.png,stimuli/m0_none_X-O-X.png,stimuli/m0_wW-L_X-O-X.png,0,12,12,22,,,,,,,,,152.2257859823294,158.89941459940746,159.63776256889105,159.63776256889105,159.63776256889105,160.52596640167758,160.52596640167758,right,0.32484025752637535,153.28258503996767,S3,B-M,2023-01-26_09h04.07.562,knowing_that_K_ONLY,2022.2.5,59.981565911421896,
Does Anna know that the book is here?,Does Anna think that the book is here?,Is the book here?,early,1,per_1,per_K,1,1,1,no,B-X-X,B-O-X,B-X-X,L,stimuli/blue-L.png,mB-M,m0,stimuli/m0_w0_B-X-X.png,stimuli/m0_wW-R_B-X-X.png,stimuli/m0_none_B-X-X.png,stimuli/mW-R_none_B-X-X.png,stimuli/mB-M_none_B-X-X.png,stimuli/mB-M_none_B-O-X.png,stimuli/mB-M_none_B-X-X.png,stimuli/mW-L_none_B-X-X.png,stimuli/m0_none_B-X-X.png,stimuli/m0_wW-L_B-X-X.png,0,13,13,0,,,,,,,,,160.87586544512305,167.5474560034927,168.28688411519397,168.28688411519397,168.28688411519397,169.1760102553526,169.1760102553526,left,0.6507891434011981,161.9288228919031,S3,B-M,2023-01-26_09h04.07.562,knowing_that_K_ONLY,2022.2.5,59.981565911421896,
Does Anna know that the book is here?,Does Anna think that the book is here?,Is the book here?,early,2,per_2,per_K,1,1,1,no,X-X-B,O-X-B,X-X-B,R,stimuli/blue-R.png,mB-L,m0,stimuli/m0_w0_X-X-B.png,stimuli/m0_wW-R_X-X-B.png,stimuli/m0_none_X-X-B.png,stimuli/mW-R_none_X-X-B.png,stimuli/mB-L_none_X-X-B.png,stimuli/mB-L_none_O-X-B.png,stimuli/mB-L_none_X-X-B.png,stimuli/mW-L_none_X-X-B.png,stimuli/m0_none_X-X-B.png,stimuli/m0_wW-L_X-X-B.png,0,14,14,1,,,,,,,,,169.85914585669525,176.5344391183462,177.26871866965666,177.26871866965666,177.26871866965666,178.15931633126456,178.15931633126456,left,0.2915409506531432,170.9193723689532,S3,B-M,2023-01-26_09h04.07.562,knowing_that_K_ONLY,2022.2.5,59.981565911421896,
Does Anna know that the book is here?,Does Anna think that the book is here?,Is the book here?,late,6,per_6,per_K,1,1,1,no,X-B-X,O-B-X,X-B-X,M,stimuli/blue-M.png,mB-L,m0,stimuli/m0_w0_X-B-X.png,stimuli/mW-R_w0_X-B-X.png,stimuli/mB-L_w0_X-B-X.png,stimuli/mB-L_w0_O-B-X.png,stimuli/mB-L_w0_X-B-X.png,stimuli/mW-L_w0_X-B-X.png,stimuli/m0_wW-R_X-B-X.png,stimuli/m0_none_X-B-X.png,stimuli/m0_none_X-B-X.png,stimuli/m0_wW-L_X-B-X.png,0,15,15,5,,,,,,,,,178.47614672477357,185.1538954093121,185.89032209222205,185.89032209222205,185.89032209222205,186.77613690821454,186.77613690821454,left,0.2335988733684644,179.5329056821065,S3,B-M,2023-01-26_09h04.07.562,knowing_that_K_ONLY,2022.2.5,59.981565911421896,
Does Anna know that the book is here?,Does Anna think that the book is here?,Is the book here?,early,27,no_9,no_K,0,0,0,hide,X-X-B,O-O-B,X-X-O,L,stimuli/blue-L.png,mB-M,m0,stimuli/m0_w0_X-X-B.png,stimuli/m0_wW-R_X-X-B.png,stimuli/m0_none_X-X-B.png,stimuli/mW-R_none_X-X-B.png,stimuli/mB-M_none_X-X-B.png,stimuli/mB-M_none_O-O-B.png,stimuli/mB-M_none_X-X-O.png,stimuli/mW-L_none_X-X-O.png,stimuli/m0_none_X-X-O.png,stimuli/m0_wW-L_X-X-O.png,0,16,16,26,,,,,,,,,187.0259798753541,193.69576912734192,194.43824775062967,194.43824775062967,194.43824775062967,195.32582409365568,195.32582409365568,right,0.2773537776665762,188.08902816707268,S3,B-M,2023-01-26_09h04.07.562,knowing_that_K_ONLY,2022.2.5,59.981565911421896,
Does Anna know that the book is here?,Does Anna think that the book is here?,Is the book here?,early,19,no_1,no_K,0,0,0,no,X-X-X,O-X-X,X-X-X,L,stimuli/blue-L.png,mB-L,m0,stimuli/m0_w0_X-X-X.png,stimuli/m0_wW-R_X-X-X.png,stimuli/m0_none_X-X-X.png,stimuli/mW-R_none_X-X-X.png,stimuli/mB-L_none_X-X-X.png,stimuli/mB-L_none_O-X-X.png,stimuli/mB-L_none_X-X-X.png,stimuli/mW-L_none_X-X-X.png,stimuli/m0_none_X-X-X.png,stimuli/m0_wW-L_X-X-X.png,0,17,17,18,,,,,,,,,195.62583160051145,202.29789662582334,203.03782230231445,203.03782230231445,203.03782230231445,203.92586958350148,203.92586958350148,right,0.2854447392746806,196.68049122567754,S3,B-M,2023-01-26_09h04.07.562,knowing_that_K_ONLY,2022.2.5,59.981565911421896,
Does Anna know that the book is here?,Does Anna think that the book is here?,Is the book here?,early,26,no_8,no_K,0,0,0,hide,X-B-O,O-B-O,X-O-X,R,stimuli/blue-R.png,mB-L,m0,stimuli/m0_w0_X-B-O.png,stimuli/m0_wW-R_X-B-O.png,stimuli/m0_none_X-B-O.png,stimuli/mW-R_none_X-B-O.png,stimuli/mB-L_none_X-B-O.png,stimuli/mB-L_none_O-B-O.png,stimuli/mB-L_none_X-O-X.png,stimuli/mW-L_none_X-O-X.png,stimuli/m0_none_X-O-X.png,stimuli/m0_wW-L_X-O-X.png,0,18,18,25,,,,,,,,,204.24253957578912,210.91291172604542,211.63180847314652,211.63180847314652,211.63180847314652,212.54270331340376,212.54270331340376,right,1.052526674233377,205.2968758320203,S3,B-M,2023-01-26_09h04.07.562,knowing_that_K_ONLY,2022.2.5,59.981565911421896,
Does Anna know that the book is here?,Does Anna think that the book is here?,Is the book here?,early,3,per_3,per_K,1,1,1,no,O-B-X,O-B-O,O-B-X,M,stimuli/blue-M.png,mB-R,m0,stimuli/m0_w0_O-B-X.png,stimuli/m0_wW-R_O-B-X.png,stimuli/m0_none_O-B-X.png,stimuli/mW-R_none_O-B-X.png,stimuli/mB-R_none_O-B-X.png,stimuli/mB-R_none_O-B-O.png,stimuli/mB-R_none_O-B-X.png,stimuli/mW-L_none_O-B-X.png,stimuli/m0_none_O-B-X.png,stimuli/m0_wW-L_O-B-X.png,0,19,19,2,,,,,,,,,213.62635354627855,220.30015700077638,221.04128664929885,221.04128664929885,221.04128664929885,221.925900701317,221.925900701317,left,0.29165708110667765,214.68824791104998,S3,B-M,2023-01-26_09h04.07.562,knowing_that_K_ONLY,2022.2.5,59.981565911421896,
Does Anna know that the book is here?,Does Anna think that the book is here?,Is the book here?,late,14,mem_5,mem_K,1,1,1,no,O-B-X,O-B-X,O-X-X,M,stimuli/blue-M.png,mB-L,m0,stimuli/m0_w0_O-B-X.png,stimuli/mW-R_w0_O-B-X.png,stimuli/mB-L_w0_O-B-X.png,stimuli/mB-L_w0_O-B-X.png,stimuli/mB-L_w0_O-X-X.png,stimuli/mW-L_w0_O-X-X.png,stimuli/m0_wW-R_O-X-X.png,stimuli/m0_none_O-X-X.png,stimuli/m0_none_O-X-X.png,stimuli/m0_wW-L_O-X-X.png,0,20,20,13,,,,,,,,,222.24258128018118,228.91490936360788,229.65401410637423,229.65401410637423,229.65401410637423,230.54276169952936,230.54276169952936,left,0.33221390459220856,223.30139882757794,S3,B-M,2023-01-26_09h04.07.562,knowing_that_K_ONLY,2022.2.5,59.981565911421896,
Does Anna know that the book is here?,Does Anna think that the book is here?,Is the book here?,late,4,per_4,per_K,1,1,1,no,O-X-B,O-O-B,O-X-B,R,stimuli/blue-R.png,mB-M,m0,stimuli/m0_w0_O-X-B.png,stimuli/mW-R_w0_O-X-B.png,stimuli/mB-M_w0_O-X-B.png,stimuli/mB-M_w0_O-O-B.png,stimuli/mB-M_w0_O-X-B.png,stimuli/mW-L_w0_O-X-B.png,stimuli/m0_wW-R_O-X-B.png,stimuli/m0_none_O-X-B.png,stimuli/m0_none_O-X-B.png,stimuli/m0_wW-L_O-X-B.png,0,21,21,3,,,,,,,,,230.89272650750354,237.56230338814203,238.30981155415066,238.30981155415066,238.30981155415066,239.19275486643892,239.19275486643892,left,0.33740256528835744,231.95562049315777,S3,B-M,2023-01-26_09h04.07.562,knowing_that_K_ONLY,2022.2.5,59.981565911421896,
Does Anna know that the book is here?,Does Anna think that the book is here?,Is the book here?,early,20,no_2,no_K,0,0,0,no,X-O-X,O-O-X,X-O-X,L,stimuli/blue-L.png,mB-L,m0,stimuli/m0_w0_X-O-X.png,stimuli/m0_wW-R_X-O-X.png,stimuli/m0_none_X-O-X.png,stimuli/mW-R_none_X-O-X.png,stimuli/mB-L_none_X-O-X.png,stimuli/mB-L_none_O-O-X.png,stimuli/mB-L_none_X-O-X.png,stimuli/mW-L_none_X-O-X.png,stimuli/m0_none_X-O-X.png,stimuli/m0_wW-L_X-O-X.png,0,22,22,19,,,,,,,,,239.55946621019393,246.23243525717407,246.96984038793016,246.96984038793016,246.96984038793016,247.85927770659328,247.85927770659328,right,0.318692717817612,240.6158238434,S3,B-M,2023-01-26_09h04.07.562,knowing_that_K_ONLY,2022.2.5,59.981565911421896,
Does Anna know that the book is here?,Does Anna think that the book is here?,Is the book here?,early,21,no_3,no_K,0,0,0,no,X-X-O,X-O-O,X-X-O,M,stimuli/blue-M.png,mB-M,m0,stimuli/m0_w0_X-X-O.png,stimuli/m0_wW-R_X-X-O.png,stimuli/m0_none_X-X-O.png,stimuli/mW-R_none_X-X-O.png,stimuli/mB-M_none_X-X-O.png,stimuli/mB-M_none_X-O-O.png,stimuli/mB-M_none_X-X-O.png,stimuli/mW-L_none_X-X-O.png,stimuli/m0_none_X-X-O.png,stimuli/m0_wW-L_X-X-O.png,0,23,23,20,,,,,,,,,248.20927459478844,254.88124498340767,255.61886408936698,255.61886408936698,255.61886408936698,256.5094790743897,256.5094790743897,right,0.30027768784202635,249.26184130413458,S3,B-M,2023-01-26_09h04.07.562,knowing_that_K_ONLY,2022.2.5,59.981565911421896,
Does Anna know that the book is here?,Does Anna think that the book is here?,Is the book here?,early,24,no_6,no_K,0,0,0,no,X-X-X,X-X-O,X-X-X,R,stimuli/blue-R.png,mB-R,m0,stimuli/m0_w0_X-X-X.png,stimuli/m0_wW-R_X-X-X.png,stimuli/m0_none_X-X-X.png,stimuli/mW-R_none_X-X-X.png,stimuli/mB-R_none_X-X-X.png,stimuli/mB-R_none_X-X-O.png,stimuli/mB-R_none_X-X-X.png,stimuli/mW-L_none_X-X-X.png,stimuli/m0_none_X-X-X.png,stimuli/m0_wW-L_X-X-X.png,0,24,24,23,,,,,,,,,256.82609132223297,263.47647105623037,264.21602075209375,264.21602075209375,264.21602075209375,265.1259740367532,265.1259740367532,right,0.3078377211932093,257.8841954047093,S3,B-M,2023-01-26_09h04.07.562,knowing_that_K_ONLY,2022.2.5,59.981565911421896,
Does Anna know that the book is here?,Does Anna think that the book is here?,Is the book here?,late,10,mem_1,mem_K,1,1,1,no,O-X-B,X-X-B,X-X-X,R,stimuli/blue-R.png,mB-M,m0,stimuli/m0_w0_O-X-B.png,stimuli/mW-R_w0_O-X-B.png,stimuli/mB-M_w0_O-X-B.png,stimuli/mB-M_w0_X-X-B.png,stimuli/mB-M_w0_X-X-X.png,stimuli/mW-L_w0_X-X-X.png,stimuli/m0_wW-R_X-X-X.png,stimuli/m0_none_X-X-X.png,stimuli/m0_none_X-X-X.png,stimuli/m0_wW-L_X-X-X.png,0,25,25,9,,,,,,,,,265.4596164099639,272.1301354877651,272.8475517310435,272.8475517310435,272.8475517310435,273.7594417008804,273.7594417008804,left,0.3148254427360371,266.51951955317054,S3,B-M,2023-01-26_09h04.07.562,knowing_that_K_ONLY,2022.2.5,59.981565911421896,
Does Anna know that the book is here?,Does Anna think that the book is here?,Is the book here?,late,18,mem_9,mem_K,1,1,1,switch,X-O-B,X-B-O,X-X-O,M,stimuli/blue-M.png,mB-L,m0,stimuli/m0_w0_X-O-B.png,stimuli/mW-R_w0_X-O-B.png,stimuli/mB-L_w0_X-O-B.png,stimuli/mB-L_w0_X-B-O.png,stimuli/mB-L_w0_X-X-O.png,stimuli/mW-L_w0_X-X-O.png,stimuli/m0_wW-R_X-X-O.png,stimuli/m0_none_X-X-O.png,stimuli/m0_none_X-X-O.png,stimuli/m0_wW-L_X-X-O.png,0,26,26,17,,,,,,,,,274.0928213367006,280.756599710905,281.5053343051113,281.5053343051113,281.5053343051113,282.3928792094812,282.3928792094812,left,0.26567977212835103,275.15179832291324,S3,B-M,2023-01-26_09h04.07.562,knowing_that_K_ONLY,2022.2.5,59.981565911421896,
Does Anna know that the book is here?,Does Anna think that the book is here?,Is the book here?,early,22,no_4,no_K,0,0,0,no,O-X-X,O-O-X,O-X-X,M,stimuli/blue-M.png,mB-M,m0,stimuli/m0_w0_O-X-X.png,stimuli/m0_wW-R_O-X-X.png,stimuli/m0_none_O-X-X.png,stimuli/mW-R_none_O-X-X.png,stimuli/mB-M_none_O-X-X.png,stimuli/mB-M_none_O-O-X.png,stimuli/mB-M_none_O-X-X.png,stimuli/mW-L_none_O-X-X.png,stimuli/m0_none_O-X-X.png,stimuli/m0_wW-L_O-X-X.png,0,27,27,21,,,,,,,,,282.6761238195468,289.3451107442379,290.06592172035016,290.06592172035016,290.06592172035016,290.9762554769404,290.9762554769404,right,0.3461761948419735,283.733013022691,S3,B-M,2023-01-26_09h04.07.562,knowing_that_K_ONLY,2022.2.5,59.981565911421896,
Does Anna know that the book is here?,Does Anna think that the book is here?,Is the book here?,early,28,no_10,no_K,0,0,0,hide,O-B-O,O-B-O,X-O-X,L,stimuli/blue-L.png,mB-M,m0,stimuli/m0_w0_O-B-O.png,stimuli/m0_wW-R_O-B-O.png,stimuli/m0_none_O-B-O.png,stimuli/mW-R_none_O-B-O.png,stimuli/mB-M_none_O-B-O.png,stimuli/mB-M_none_O-B-O.png,stimuli/mB-M_none_X-O-X.png,stimuli/mW-L_none_X-O-X.png,stimuli/m0_none_X-O-X.png,stimuli/m0_wW-L_X-O-X.png,1,0,28,27,,,,,,,,,291.34273038920946,297.9941456738161,298.7562801914755,298.7562801914755,298.7562801914755,299.6428434399422,299.6428434399422,right,0.31153785809874535,292.39897894952446,S3,B-M,2023-01-26_09h04.07.562,knowing_that_K_ONLY,2022.2.5,59.981565911421896,
Does Anna know that the book is here?,Does Anna think that the book is here?,Is the book here?,late,6,per_6,per_K,1,1,1,no,X-B-X,O-B-X,X-B-X,M,stimuli/blue-M.png,mB-L,m0,stimuli/m0_w0_X-B-X.png,stimuli/mW-R_w0_X-B-X.png,stimuli/mB-L_w0_X-B-X.png,stimuli/mB-L_w0_O-B-X.png,stimuli/mB-L_w0_X-B-X.png,stimuli/mW-L_w0_X-B-X.png,stimuli/m0_wW-R_X-B-X.png,stimuli/m0_none_X-B-X.png,stimuli/m0_none_X-B-X.png,stimuli/m0_wW-L_X-B-X.png,1,1,29,5,,,,,,,,,299.976331186248,306.64792495267466,307.38737648294773,307.38737648294773,307.38737648294773,308.27635762037244,308.27635762037244,left,0.3419037462444976,301.03727854194585,S3,B-M,2023-01-26_09h04.07.562,knowing_that_K_ONLY,2022.2.5,59.981565911421896,
Does Anna know that the book is here?,Does Anna think that the book is here?,Is the book here?,early,26,no_8,no_K,0,0,0,hide,X-B-O,O-B-O,X-O-X,R,stimuli/blue-R.png,mB-L,m0,stimuli/m0_w0_X-B-O.png,stimuli/m0_wW-R_X-B-O.png,stimuli/m0_none_X-B-O.png,stimuli/mW-R_none_X-B-O.png,stimuli/mB-L_none_X-B-O.png,stimuli/mB-L_none_O-B-O.png,stimuli/mB-L_none_X-O-X.png,stimuli/mW-L_none_X-O-X.png,stimuli/m0_none_X-O-X.png,stimuli/m0_wW-L_X-O-X.png,1,2,30,25,,,,,,,,,308.6428164925892,315.3161384224659,316.05339566315524,316.05339566315524,316.05339566315524,316.9427354577929,316.9427354577929,right,0.2524088113568723,309.7037705851253,S3,B-M,2023-01-26_09h04.07.562,knowing_that_K_ONLY,2022.2.5,59.981565911421896,
Does Anna know that the book is here?,Does Anna think that the book is here?,Is the book here?,late,12,mem_3,mem_K,1,1,1,no,X-O-B,X-O-B,X-O-X,R,stimuli/blue-R.png,mB-M,m0,stimuli/m0_w0_X-O-B.png,stimuli/mW-R_w0_X-O-B.png,stimuli/mB-M_w0_X-O-B.png,stimuli/mB-M_w0_X-O-B.png,stimuli/mB-M_w0_X-O-X.png,stimuli/mW-L_w0_X-O-X.png,stimuli/m0_wW-R_X-O-X.png,stimuli/m0_none_X-O-X.png,stimuli/m0_none_X-O-X.png,stimuli/m0_wW-L_X-O-X.png,1,3,31,11,,,,,,,,,317.2262569204904,323.90141223708633,324.6369984172052,324.6369984172052,324.6369984172052,325.5263641969068,325.5263641969068,left,0.2758097549667582,318.2847828583326,S3,B-M,2023-01-26_09h04.07.562,knowing_that_K_ONLY,2022.2.5,59.981565911421896,
Does Anna know that the book is here?,Does Anna think that the book is here?,Is the book here?,early,19,no_1,no_K,0,0,0,no,X-X-X,O-X-X,X-X-X,L,stimuli/blue-L.png,mB-L,m0,stimuli/m0_w0_X-X-X.png,stimuli/m0_wW-R_X-X-X.png,stimuli/m0_none_X-X-X.png,stimuli/mW-R_none_X-X-X.png,stimuli/mB-L_none_X-X-X.png,stimuli/mB-L_none_O-X-X.png,stimuli/mB-L_none_X-X-X.png,stimuli/mW-L_none_X-X-X.png,stimuli/m0_none_X-X-X.png,stimuli/m0_wW-L_X-X-X.png,1,4,32,18,,,,,,,,,325.82634828507435,332.49896156205796,333.23870309779886,333.23870309779886,333.23870309779886,334.1262794408249,334.1262794408249,right,0.8835606017382815,326.8806883909274,S3,B-M,2023-01-26_09h04.07.562,knowing_that_K_ONLY,2022.2.5,59.981565911421896,
Does Anna know that the book is here?,Does Anna think that the book is here?,Is the book here?,early,7,per_7,per_K,1,1,1,switch,B-X-O,O-X-B,X-X-B,R,stimuli/blue-R.png,mB-R,m0,stimuli/m0_w0_B-X-O.png,stimuli/m0_wW-R_B-X-O.png,stimuli/m0_none_B-X-O.png,stimuli/mW-R_none_B-X-O.png,stimuli/mB-R_none_B-X-O.png,stimuli/mB-R_none_O-X-B.png,stimuli/mB-R_none_X-X-B.png,stimuli/mW-L_none_X-X-B.png,stimuli/m0_none_X-X-B.png,stimuli/m0_wW-L_X-X-B.png,1,5,33,6,,,,,,,,,335.02607419132255,341.70100558770355,342.4388534259051,342.4388534259051,342.4388534259051,343.3256200632313,343.3256200632313,left,1.6135474937036633,336.0847422447987,S3,B-M,2023-01-26_09h04.07.562,knowing_that_K_ONLY,2022.2.5,59.981565911421896,
Does Anna know that the book is here?,Does Anna think that the book is here?,Is the book here?,early,25,no_7,no_K,0,0,0,hide,B-X-X,B-O-O,O-X-X,M,stimuli/blue-M.png,mB-L,m0,stimuli/m0_w0_B-X-X.png,stimuli/m0_wW-R_B-X-X.png,stimuli/m0_none_B-X-X.png,stimuli/mW-R_none_B-X-X.png,stimuli/mB-L_none_B-X-X.png,stimuli/mB-L_none_B-O-O.png,stimuli/mB-L_none_O-X-X.png,stimuli/mW-L_none_O-X-X.png,stimuli/m0_none_O-X-X.png,stimuli/m0_wW-L_O-X-X.png,1,6,34,24,,,,,,,,,344.95945600862615,351.63343879184686,352.37129593326245,352.37129593326245,352.37129593326245,353.25945068337023,353.25945068337023,right,0.1826932798139751,346.01733264210634,S3,B-M,2023-01-26_09h04.07.562,knowing_that_K_ONLY,2022.2.5,59.981565911421896,
Does Anna know that the book is here?,Does Anna think that the book is here?,Is the book here?,late,14,mem_5,mem_K,1,1,1,no,O-B-X,O-B-X,O-X-X,M,stimuli/blue-M.png,mB-L,m0,stimuli/m0_w0_O-B-X.png,stimuli/mW-R_w0_O-B-X.png,stimuli/mB-L_w0_O-B-X.png,stimuli/mB-L_w0_O-B-X.png,stimuli/mB-L_w0_O-X-X.png,stimuli/mW-L_w0_O-X-X.png,stimuli/m0_wW-R_O-X-X.png,stimuli/m0_none_O-X-X.png,stimuli/m0_none_O-X-X.png,stimuli/m0_wW-L_O-X-X.png,1,7,35,13,,,,,,,,,353.4592022538418,360.12929594737943,360.8703277511522,360.8703277511522,360.8703277511522,361.7596592049813,361.7596592049813,left,0.3550553685054183,354.5205782017438,S3,B-M,2023-01-26_09h04.07.562,knowing_that_K_ONLY,2022.2.5,59.981565911421896,
Does Anna know that the book is here?,Does Anna think that the book is here?,Is the book here?,late,11,mem_2,mem_K,1,1,1,no,O-B-O,O-B-X,O-X-X,M,stimuli/blue-M.png,mB-L,m0,stimuli/m0_w0_O-B-O.png,stimuli/mW-R_w0_O-B-O.png,stimuli/mB-L_w0_O-B-O.png,stimuli/mB-L_w0_O-B-X.png,stimuli/mB-L_w0_O-X-X.png,stimuli/mW-L_w0_O-X-X.png,stimuli/m0_wW-R_O-X-X.png,stimuli/m0_none_O-X-X.png,stimuli/m0_none_O-X-X.png,stimuli/m0_wW-L_O-X-X.png,1,8,36,10,,,,,,,,,362.14280783094,368.8149780795211,369.5561693221098,369.5561693221098,369.5561693221098,370.4431643708376,370.4431643708376,left,0.3346690066391602,363.20305936574005,S3,B-M,2023-01-26_09h04.07.562,knowing_that_K_ONLY,2022.2.5,59.981565911421896,
Does Anna know that the book is here?,Does Anna think that the book is here?,Is the book here?,late,13,mem_4,mem_K,1,1,1,no,B-X-O,B-X-O,X-X-O,L,stimuli/blue-L.png,mB-M,m0,stimuli/m0_w0_B-X-O.png,stimuli/mW-R_w0_B-X-O.png,stimuli/mB-M_w0_B-X-O.png,stimuli/mB-M_w0_B-X-O.png,stimuli/mB-M_w0_X-X-O.png,stimuli/mW-L_w0_X-X-O.png,stimuli/m0_wW-R_X-X-O.png,stimuli/m0_none_X-X-O.png,stimuli/m0_none_X-X-O.png,stimuli/m0_wW-L_X-X-O.png,1,9,37,12,,,,,,,,,370.8098330479115,377.4853136582533,378.22007120528724,378.22007120528724,378.22007120528724,379.1095248849597,379.1095248849597,left,0.25293877720832825,371.86486095457803,S3,B-M,2023-01-26_09h04.07.562,knowing_that_K_ONLY,2022.2.5,59.981565911421896,
Does Anna know that the book is here?,Does Anna think that the book is here?,Is the book here?,late,18,mem_9,mem_K,1,1,1,switch,X-O-B,X-B-O,X-X-O,M,stimuli/blue-M.png,mB-L,m0,stimuli/m0_w0_X-O-B.png,stimuli/mW-R_w0_X-O-B.png,stimuli/mB-L_w0_X-O-B.png,stimuli/mB-L_w0_X-B-O.png,stimuli/mB-L_w0_X-X-O.png,stimuli/mW-L_w0_X-X-O.png,stimuli/m0_wW-R_X-X-O.png,stimuli/m0_none_X-X-O.png,stimuli/m0_none_X-X-O.png,stimuli/m0_wW-L_X-X-O.png,1,10,38,17,,,,,,,,,379.39245190040674,386.0662219915539,386.7824188641971,386.7824188641971,386.7824188641971,387.69318634585943,387.69318634585943,left,0.32470712438225746,380.4433847622713,S3,B-M,2023-01-26_09h04.07.562,knowing_that_K_ONLY,2022.2.5,59.981565911421896,
Does Anna know that the book is here?,Does Anna think that the book is here?,Is the book here?,early,21,no_3,no_K,0,0,0,no,X-X-O,X-O-O,X-X-O,M,stimuli/blue-M.png,mB-M,m0,stimuli/m0_w0_X-X-O.png,stimuli/m0_wW-R_X-X-O.png,stimuli/m0_none_X-X-O.png,stimuli/mW-R_none_X-X-O.png,stimuli/mB-M_none_X-X-O.png,stimuli/mB-M_none_X-O-O.png,stimuli/mB-M_none_X-X-O.png,stimuli/mW-L_none_X-X-O.png,stimuli/m0_none_X-X-O.png,stimuli/m0_wW-L_X-X-O.png,1,11,39,20,,,,,,,,,388.0430882765213,394.7151924398495,395.433966640383,395.433966640383,395.433966640383,396.34290747216437,396.34290747216437,right,0.24381803930737078,389.0972108782735,S3,B-M,2023-01-26_09h04.07.562,knowing_that_K_ONLY,2022.2.5,59.981565911421896,
Does Anna know that the book is here?,Does Anna think that the book is here?,Is the book here?,early,23,no_5,no_K,0,0,0,no,X-O-X,X-O-O,X-O-X,R,stimuli/blue-R.png,mB-R,m0,stimuli/m0_w0_X-O-X.png,stimuli/m0_wW-R_X-O-X.png,stimuli/m0_none_X-O-X.png,stimuli/mW-R_none_X-O-X.png,stimuli/mB-R_none_X-O-X.png,stimuli/mB-R_none_X-O-O.png,stimuli/mB-R_none_X-O-X.png,stimuli/mW-L_none_X-O-X.png,stimuli/m0_none_X-O-X.png,stimuli/m0_wW-L_X-O-X.png,1,12,40,22,,,,,,,,,396.6096243337961,403.28402191470377,404.0184560926864,404.0184560926864,404.0184560926864,404.9095612639794,404.9095612639794,right,0.21250802918802947,397.6691001680447,S3,B-M,2023-01-26_09h04.07.562,knowing_that_K_ONLY,2022.2.5,59.981565911421896,
Does Anna know that the book is here?,Does Anna think that the book is here?,Is the book here?,early,2,per_2,per_K,1,1,1,no,X-X-B,O-X-B,X-X-B,R,stimuli/blue-R.png,mB-L,m0,stimuli/m0_w0_X-X-B.png,stimuli/m0_wW-R_X-X-B.png,stimuli/m0_none_X-X-B.png,stimuli/mW-R_none_X-X-B.png,stimuli/mB-L_none_X-X-B.png,stimuli/mB-L_none_O-X-B.png,stimuli/mB-L_none_X-X-B.png,stimuli/mW-L_none_X-X-B.png,stimuli/m0_none_X-X-B.png,stimuli/m0_wW-L_X-X-B.png,1,13,41,1,,,,,,,,,405.1429015052272,411.81809660128783,412.55604453000706,412.55604453000706,412.55604453000706,413.44296996458434,413.44296996458434,left,0.2959580811439082,406.2031854412053,S3,B-M,2023-01-26_09h04.07.562,knowing_that_K_ONLY,2022.2.5,59.981565911421896,
Does Anna know that the book is here?,Does Anna think that the book is here?,Is the book here?,late,16,mem_7,mem_K,1,1,1,switch,B-X-O,O-X-B,O-X-X,R,stimuli/blue-R.png,mB-M,m0,stimuli/m0_w0_B-X-O.png,stimuli/mW-R_w0_B-X-O.png,stimuli/mB-M_w0_B-X-O.png,stimuli/mB-M_w0_O-X-B.png,stimuli/mB-M_w0_O-X-X.png,stimuli/mW-L_w0_O-X-X.png,stimuli/m0_wW-R_O-X-X.png,stimuli/m0_none_O-X-X.png,stimuli/m0_none_O-X-X.png,stimuli/m0_wW-L_O-X-X.png,1,14,42,15,,,,,,,,,413.75973459356464,420.4320751883788,421.14918217796367,421.14918217796367,421.14918217796367,422.05970039602835,422.05970039602835,left,0.26253462373279035,414.8170363488607,S3,B-M,2023-01-26_09h04.07.562,knowing_that_K_ONLY,2022.2.5,59.981565911421896,
Does Anna know that the book is here?,Does Anna think that the book is here?,Is the book here?,early,22,no_4,no_K,0,0,0,no,O-X-X,O-O-X,O-X-X,M,stimuli/blue-M.png,mB-M,m0,stimuli/m0_w0_O-X-X.png,stimuli/m0_wW-R_O-X-X.png,stimuli/m0_none_O-X-X.png,stimuli/mW-R_none_O-X-X.png,stimuli/mB-M_none_O-X-X.png,stimuli/mB-M_none_O-O-X.png,stimuli/mB-M_none_O-X-X.png,stimuli/mW-L_none_O-X-X.png,stimuli/m0_none_O-X-X.png,stimuli/m0_wW-L_O-X-X.png,1,15,43,21,,,,,,,,,422.3432613174664,429.0168033178197,429.7550194374053,429.7550194374053,429.7550194374053,430.64311098936014,430.64311098936014,right,0.5119149935198948,423.3979722710792,S3,B-M,2023-01-26_09h04.07.562,knowing_that_K_ONLY,2022.2.5,59.981565911421896,
Does Anna know that the book is here?,Does Anna think that the book is here?,Is the book here?,late,10,mem_1,mem_K,1,1,1,no,O-X-B,X-X-B,X-X-X,R,stimuli/blue-R.png,mB-M,m0,stimuli/m0_w0_O-X-B.png,stimuli/mW-R_w0_O-X-B.png,stimuli/mB-M_w0_O-X-B.png,stimuli/mB-M_w0_X-X-B.png,stimuli/mB-M_w0_X-X-X.png,stimuli/mW-L_w0_X-X-X.png,stimuli/m0_wW-R_X-X-X.png,stimuli/m0_none_X-X-X.png,stimuli/m0_none_X-X-X.png,stimuli/m0_wW-L_X-X-X.png,1,16,44,9,,,,,,,,,431.1764356396161,437.8459522094345,438.5936705011409,438.5936705011409,438.5936705011409,439.4763048804598,439.4763048804598,left,0.5021635578013957,432.2347979681799,S3,B-M,2023-01-26_09h04.07.562,knowing_that_K_ONLY,2022.2.5,59.981565911421896,
Does Anna know that the book is here?,Does Anna think that the book is here?,Is the book here?,early,9,per_9,per_K,1,1,1,switch,X-O-B,X-B-O,X-B-X,M,stimuli/blue-M.png,mB-R,m0,stimuli/m0_w0_X-O-B.png,stimuli/m0_wW-R_X-O-B.png,stimuli/m0_none_X-O-B.png,stimuli/mW-R_none_X-O-B.png,stimuli/mB-R_none_X-O-B.png,stimuli/mB-R_none_X-B-O.png,stimuli/mB-R_none_X-B-X.png,stimuli/mW-L_none_X-B-X.png,stimuli/m0_none_X-B-X.png,stimuli/m0_wW-L_X-B-X.png,1,17,45,8,,,,,,,,,440.0096391548868,446.6796147930436,447.40003406920005,447.40003406920005,447.40003406920005,448.30983208550606,448.30983208550606,left,0.3164262475911528,441.0728526598541,S3,B-M,2023-01-26_09h04.07.562,knowing_that_K_ONLY,2022.2.5,59.981565911421896,
Does Anna know that the book is here?,Does Anna think that the book is here?,Is the book here?,early,20,no_2,no_K,0,0,0,no,X-O-X,O-O-X,X-O-X,L,stimuli/blue-L.png,mB-L,m0,stimuli/m0_w0_X-O-X.png,stimuli/m0_wW-R_X-O-X.png,stimuli/m0_none_X-O-X.png,stimuli/mW-R_none_X-O-X.png,stimuli/mB-L_none_X-O-X.png,stimuli/mB-L_none_O-O-X.png,stimuli/mB-L_none_X-O-X.png,stimuli/mW-L_none_X-O-X.png,stimuli/m0_none_X-O-X.png,stimuli/m0_wW-L_X-O-X.png,1,18,46,19,,,,,,,,,448.64306447294075,455.3151728067314,456.0535602348391,456.0535602348391,456.0535602348391,456.9431303658057,456.9431303658057,right,0.38028969860170037,449.6982524601044,S3,B-M,2023-01-26_09h04.07.562,knowing_that_K_ONLY,2022.2.5,59.981565911421896,
Does Anna know that the book is here?,Does Anna think that the book is here?,Is the book here?,late,15,mem_6,mem_K,1,1,1,no,X-B-O,X-B-X,X-X-X,M,stimuli/blue-M.png,mB-R,m0,stimuli/m0_w0_X-B-O.png,stimuli/mW-R_w0_X-B-O.png,stimuli/mB-R_w0_X-B-O.png,stimuli/mB-R_w0_X-B-X.png,stimuli/mB-R_w0_X-X-X.png,stimuli/mW-L_w0_X-X-X.png,stimuli/m0_wW-R_X-X-X.png,stimuli/m0_none_X-X-X.png,stimuli/m0_none_X-X-X.png,stimuli/m0_wW-L_X-X-X.png,1,19,47,14,,,,,,,,,457.3430874424521,464.0145586623112,464.73269959853496,464.73269959853496,464.73269959853496,465.64295315451454,465.64295315451454,left,0.37640285468660295,458.3978221354773,S3,B-M,2023-01-26_09h04.07.562,knowing_that_K_ONLY,2022.2.5,59.981565911421896,
Does Anna know that the book is here?,Does Anna think that the book is here?,Is the book here?,early,8,per_8,per_K,1,1,1,switch,O-X-B,B-X-O,B-X-X,L,stimuli/blue-L.png,mB-L,m0,stimuli/m0_w0_O-X-B.png,stimuli/m0_wW-R_O-X-B.png,stimuli/m0_none_O-X-B.png,stimuli/mW-R_none_O-X-B.png,stimuli/mB-L_none_O-X-B.png,stimuli/mB-L_none_B-X-O.png,stimuli/mB-L_none_B-X-X.png,stimuli/mW-L_none_B-X-X.png,stimuli/m0_none_B-X-X.png,stimuli/m0_wW-L_B-X-X.png,1,20,48,7,,,,,,,,,466.0429740707623,472.71673421701416,473.4570730871055,473.4570730871055,473.4570730871055,474.34330302174203,474.34330302174203,left,0.33184337755665183,467.09531333111227,S3,B-M,2023-01-26_09h04.07.562,knowing_that_K_ONLY,2022.2.5,59.981565911421896,
Does Anna know that the book is here?,Does Anna think that the book is here?,Is the book here?,late,17,mem_8,mem_K,1,1,1,switch,O-X-B,B-X-O,X-X-O,L,stimuli/blue-L.png,mB-M,m0,stimuli/m0_w0_O-X-B.png,stimuli/mW-R_w0_O-X-B.png,stimuli/mB-M_w0_O-X-B.png,stimuli/mB-M_w0_B-X-O.png,stimuli/mB-M_w0_X-X-O.png,stimuli/mW-L_w0_X-X-O.png,stimuli/m0_wW-R_X-X-O.png,stimuli/m0_none_X-X-O.png,stimuli/m0_none_X-X-O.png,stimuli/m0_wW-L_X-X-O.png,1,21,49,16,,,,,,,,,474.71535284107085,481.39970941701904,482.13810294040013,482.13810294040013,482.13810294040013,483.00983516522683,483.00983516522683,left,0.27239384909626096,475.7863586405292,S3,B-M,2023-01-26_09h04.07.562,knowing_that_K_ONLY,2022.2.5,59.981565911421896,
Does Anna know that the book is here?,Does Anna think that the book is here?,Is the book here?,early,24,no_6,no_K,0,0,0,no,X-X-X,X-X-O,X-X-X,R,stimuli/blue-R.png,mB-R,m0,stimuli/m0_w0_X-X-X.png,stimuli/m0_wW-R_X-X-X.png,stimuli/m0_none_X-X-X.png,stimuli/mW-R_none_X-X-X.png,stimuli/mB-R_none_X-X-X.png,stimuli/mB-R_none_X-X-O.png,stimuli/mB-R_none_X-X-X.png,stimuli/mW-L_none_X-X-X.png,stimuli/m0_none_X-X-X.png,stimuli/m0_wW-L_X-X-X.png,1,22,50,23,,,,,,,,,483.30980417563114,489.98309723334387,490.72089149744716,490.72089149744716,490.72089149744716,491.60991305613425,491.60991305613425,right,0.29683034331537783,484.3668512137374,S3,B-M,2023-01-26_09h04.07.562,knowing_that_K_ONLY,2022.2.5,59.981565911421896,
Does Anna know that the book is here?,Does Anna think that the book is here?,Is the book here?,early,3,per_3,per_K,1,1,1,no,O-B-X,O-B-O,O-B-X,M,stimuli/blue-M.png,mB-R,m0,stimuli/m0_w0_O-B-X.png,stimuli/m0_wW-R_O-B-X.png,stimuli/m0_none_O-B-X.png,stimuli/mW-R_none_O-B-X.png,stimuli/mB-R_none_O-B-X.png,stimuli/mB-R_none_O-B-O.png,stimuli/mB-R_none_O-B-X.png,stimuli/mW-L_none_O-B-X.png,stimuli/m0_none_O-B-X.png,stimuli/m0_wW-L_O-B-X.png,1,23,51,2,,,,,,,,,491.9266991788754,498.59658370923717,499.33586874301545,499.33586874301545,499.33586874301545,500.22658349748235,500.22658349748235,left,0.23951543518342078,492.9891475698678,S3,B-M,2023-01-26_09h04.07.562,knowing_that_K_ONLY,2022.2.5,59.981565911421896,
Does Anna know that the book is here?,Does Anna think that the book is here?,Is the book here?,early,27,no_9,no_K,0,0,0,hide,X-X-B,O-O-B,X-X-O,L,stimuli/blue-L.png,mB-M,m0,stimuli/m0_w0_X-X-B.png,stimuli/m0_wW-R_X-X-B.png,stimuli/m0_none_X-X-B.png,stimuli/mW-R_none_X-X-B.png,stimuli/mB-M_none_X-X-B.png,stimuli/mB-M_none_O-O-B.png,stimuli/mB-M_none_X-X-O.png,stimuli/mW-L_none_X-X-O.png,stimuli/m0_none_X-X-O.png,stimuli/m0_wW-L_X-X-O.png,1,24,52,26,,,,,,,,,500.4932522387244,507.1646374834236,507.9046690247487,507.9046690247487,507.9046690247487,508.79306565993465,508.79306565993465,right,0.2733110237168148,501.54805879155174,S3,B-M,2023-01-26_09h04.07.562,knowing_that_K_ONLY,2022.2.5,59.981565911421896,
Does Anna know that the book is here?,Does Anna think that the book is here?,Is the book here?,early,1,per_1,per_K,1,1,1,no,B-X-X,B-O-X,B-X-X,L,stimuli/blue-L.png,mB-M,m0,stimuli/m0_w0_B-X-X.png,stimuli/m0_wW-R_B-X-X.png,stimuli/m0_none_B-X-X.png,stimuli/mW-R_none_B-X-X.png,stimuli/mB-M_none_B-X-X.png,stimuli/mB-M_none_B-O-X.png,stimuli/mB-M_none_B-X-X.png,stimuli/mW-L_none_B-X-X.png,stimuli/m0_none_B-X-X.png,stimuli/m0_wW-L_B-X-X.png,1,25,53,0,,,,,,,,,509.0932672523195,515.7674033790827,516.5049653821625,516.5049653821625,516.5049653821625,517.3933126137126,517.3933126137126,left,0.32892535731662065,510.1467812915798,S3,B-M,2023-01-26_09h04.07.562,knowing_that_K_ONLY,2022.2.5,59.981565911421896,
Does Anna know that the book is here?,Does Anna think that the book is here?,Is the book here?,late,5,per_5,per_K,1,1,1,no,X-B-O,O-B-O,X-B-O,M,stimuli/blue-M.png,mB-L,m0,stimuli/m0_w0_X-B-O.png,stimuli/mW-R_w0_X-B-O.png,stimuli/mB-L_w0_X-B-O.png,stimuli/mB-L_w0_O-B-O.png,stimuli/mB-L_w0_X-B-O.png,stimuli/mW-L_w0_X-B-O.png,stimuli/m0_wW-R_X-B-O.png,stimuli/m0_none_X-B-O.png,stimuli/m0_none_X-B-O.png,stimuli/m0_wW-L_X-B-O.png,1,26,54,4,,,,,,,,,517.743239567033,524.4152112388983,525.1277098995633,525.1277098995633,525.1277098995633,526.0431995950639,526.0431995950639,left,0.31233152362983674,518.8049295806559,S3,B-M,2023-01-26_09h04.07.562,knowing_that_K_ONLY,2022.2.5,59.981565911421896,
Does Anna know that the book is here?,Does Anna think that the book is here?,Is the book here?,late,4,per_4,per_K,1,1,1,no,O-X-B,O-O-B,O-X-B,R,stimuli/blue-R.png,mB-M,m0,stimuli/m0_w0_O-X-B.png,stimuli/mW-R_w0_O-X-B.png,stimuli/mB-M_w0_O-X-B.png,stimuli/mB-M_w0_O-O-B.png,stimuli/mB-M_w0_O-X-B.png,stimuli/mW-L_w0_O-X-B.png,stimuli/m0_wW-R_O-X-B.png,stimuli/m0_none_O-X-B.png,stimuli/m0_none_O-X-B.png,stimuli/m0_wW-L_O-X-B.png,1,27,55,3,,,,,,,,,526.3764037517831,533.0534845254151,533.7912447844865,533.7912447844865,533.7912447844865,534.6765886624344,534.6765886624344,left,0.36604253575205803,527.4375737444498,S3,B-M,2023-01-26_09h04.07.562,knowing_that_K_ONLY,2022.2.5,59.981565911421896,
Does Anna know that the book is here?,Does Anna think that the book is here?,Is the book here?,early,7,per_7,per_K,1,1,1,switch,B-X-O,O-X-B,X-X-B,R,stimuli/blue-R.png,mB-R,m0,stimuli/m0_w0_B-X-O.png,stimuli/m0_wW-R_B-X-O.png,stimuli/m0_none_B-X-O.png,stimuli/mW-R_none_B-X-O.png,stimuli/mB-R_none_B-X-O.png,stimuli/mB-R_none_O-X-B.png,stimuli/mB-R_none_X-X-B.png,stimuli/mW-L_none_X-X-B.png,stimuli/m0_none_X-X-B.png,stimuli/m0_wW-L_X-X-B.png,2,0,56,6,,,,,,,,,535.059619874577,541.7321234371047,542.4702134812251,542.4702134812251,542.4702134812251,543.3598846649984,543.3598846649984,left,0.31536920310463756,536.1208036617609,S3,B-M,2023-01-26_09h04.07.562,knowing_that_K_ONLY,2022.2.5,59.981565911421896,
Does Anna know that the book is here?,Does Anna think that the book is here?,Is the book here?,late,10,mem_1,mem_K,1,1,1,no,O-X-B,X-X-B,X-X-X,R,stimuli/blue-R.png,mB-M,m0,stimuli/m0_w0_O-X-B.png,stimuli/mW-R_w0_O-X-B.png,stimuli/mB-M_w0_O-X-B.png,stimuli/mB-M_w0_X-X-B.png,stimuli/mB-M_w0_X-X-X.png,stimuli/mW-L_w0_X-X-X.png,stimuli/m0_wW-R_X-X-X.png,stimuli/m0_none_X-X-X.png,stimuli/m0_none_X-X-X.png,stimuli/m0_wW-L_X-X-X.png,2,1,57,9,,,,,,,,,543.6934776345734,550.3633881498827,551.1054497299483,551.1054497299483,551.1054497299483,551.9934354169527,551.9934354169527,left,0.3216671992558986,544.7490541136358,S3,B-M,2023-01-26_09h04.07.562,knowing_that_K_ONLY,2022.2.5,59.981565911421896,
Does Anna know that the book is here?,Does Anna think that the book is here?,Is the book here?,early,9,per_9,per_K,1,1,1,switch,X-O-B,X-B-O,X-B-X,M,stimuli/blue-M.png,mB-R,m0,stimuli/m0_w0_X-O-B.png,stimuli/m0_wW-R_X-O-B.png,stimuli/m0_none_X-O-B.png,stimuli/mW-R_none_X-O-B.png,stimuli/mB-R_none_X-O-B.png,stimuli/mB-R_none_X-B-O.png,stimuli/mB-R_none_X-B-X.png,stimuli/mW-L_none_X-B-X.png,stimuli/m0_none_X-B-X.png,stimuli/m0_wW-L_X-B-X.png,2,2,58,8,,,,,,,,,552.3434419293189,559.0170153683284,559.7544878675835,559.7544878675835,559.7544878675835,560.6433868795866,560.6433868795866,left,0.3351450776681304,553.4001931872917,S3,B-M,2023-01-26_09h04.07.562,knowing_that_K_ONLY,2022.2.5,59.981565911421896,
Does Anna know that the book is here?,Does Anna think that the book is here?,Is the book here?,early,8,per_8,per_K,1,1,1,switch,O-X-B,B-X-O,B-X-X,L,stimuli/blue-L.png,mB-L,m0,stimuli/m0_w0_O-X-B.png,stimuli/m0_wW-R_O-X-B.png,stimuli/m0_none_O-X-B.png,stimuli/mW-R_none_O-X-B.png,stimuli/mB-L_none_O-X-B.png,stimuli/mB-L_none_B-X-O.png,stimuli/mB-L_none_B-X-X.png,stimuli/mW-L_none_B-X-X.png,stimuli/m0_none_B-X-X.png,stimuli/m0_wW-L_B-X-X.png,2,3,59,7,,,,,,,,,561.0100154562388,567.6824359309394,568.4237497200957,568.4237497200957,568.4237497200957,569.3095472127898,569.3095472127898,left,0.2859689308097586,562.0673752768198,S3,B-M,2023-01-26_09h04.07.562,knowing_that_K_ONLY,2022.2.5,59.981565911421896,
Does Anna know that the book is here?,Does Anna think that the book is here?,Is the book here?,early,24,no_6,no_K,0,0,0,no,X-X-X,X-X-O,X-X-X,R,stimuli/blue-R.png,mB-R,m0,stimuli/m0_w0_X-X-X.png,stimuli/m0_wW-R_X-X-X.png,stimuli/m0_none_X-X-X.png,stimuli/mW-R_none_X-X-X.png,stimuli/mB-R_none_X-X-X.png,stimuli/mB-R_none_X-X-O.png,stimuli/mB-R_none_X-X-X.png,stimuli/mW-L_none_X-X-X.png,stimuli/m0_none_X-X-X.png,stimuli/m0_wW-L_X-X-X.png,2,4,60,23,,,,,,,,,569.6266339276917,576.2997232757043,577.0407252447912,577.0407252447912,577.0407252447912,577.9267075198004,577.9267075198004,right,0.500666051520966,570.688722057268,S3,B-M,2023-01-26_09h04.07.562,knowing_that_K_ONLY,2022.2.5,59.981565911421896,
Does Anna know that the book is here?,Does Anna think that the book is here?,Is the book here?,early,23,no_5,no_K,0,0,0,no,X-O-X,X-O-O,X-O-X,R,stimuli/blue-R.png,mB-R,m0,stimuli/m0_w0_X-O-X.png,stimuli/m0_wW-R_X-O-X.png,stimuli/m0_none_X-O-X.png,stimuli/mW-R_none_X-O-X.png,stimuli/mB-R_none_X-O-X.png,stimuli/mB-R_none_X-O-O.png,stimuli/mB-R_none_X-O-X.png,stimuli/mW-L_none_X-O-X.png,stimuli/m0_none_X-O-X.png,stimuli/m0_wW-L_X-O-X.png,2,5,61,22,,,,,,,,,578.4599497237941,585.1099698381731,585.8714415776776,585.8714415776776,585.8714415776776,586.7599899524357,586.7599899524357,right,0.41112588346004486,579.5195984706515,S3,B-M,2023-01-26_09h04.07.562,knowing_that_K_ONLY,2022.2.5,59.981565911421896,
Does Anna know that the book is here?,Does Anna think that the book is here?,Is the book here?,early,28,no_10,no_K,0,0,0,hide,O-B-O,O-B-O,X-O-X,L,stimuli/blue-L.png,mB-M,m0,stimuli/m0_w0_O-B-O.png,stimuli/m0_wW-R_O-B-O.png,stimuli/m0_none_O-B-O.png,stimuli/mW-R_none_O-B-O.png,stimuli/mB-M_none_O-B-O.png,stimuli/mB-M_none_O-B-O.png,stimuli/mB-M_none_X-O-X.png,stimuli/mW-L_none_X-O-X.png,stimuli/m0_none_X-O-X.png,stimuli/m0_wW-L_X-O-X.png,2,6,62,27,,,,,,,,,587.193326536566,593.867506934097,594.6063245584955,594.6063245584955,594.6063245584955,595.4931672260864,595.4931672260864,right,0.3902689041569829,588.2487114964752,S3,B-M,2023-01-26_09h04.07.562,knowing_that_K_ONLY,2022.2.5,59.981565911421896,
Does Anna know that the book is here?,Does Anna think that the book is here?,Is the book here?,early,22,no_4,no_K,0,0,0,no,O-X-X,O-O-X,O-X-X,M,stimuli/blue-M.png,mB-M,m0,stimuli/m0_w0_O-X-X.png,stimuli/m0_wW-R_O-X-X.png,stimuli/m0_none_O-X-X.png,stimuli/mW-R_none_O-X-X.png,stimuli/mB-M_none_O-X-X.png,stimuli/mB-M_none_O-O-X.png,stimuli/mB-M_none_O-X-X.png,stimuli/mW-L_none_O-X-X.png,stimuli/m0_none_O-X-X.png,stimuli/m0_wW-L_O-X-X.png,2,7,63,21,,,,,,,,,595.9100209741155,602.5833069740329,603.3236596387578,603.3236596387578,603.3236596387578,604.209979077219,604.209979077219,right,0.5126079272013158,596.9634695695713,S3,B-M,2023-01-26_09h04.07.562,knowing_that_K_ONLY,2022.2.5,59.981565911421896,
Does Anna know that the book is here?,Does Anna think that the book is here?,Is the book here?,early,19,no_1,no_K,0,0,0,no,X-X-X,O-X-X,X-X-X,L,stimuli/blue-L.png,mB-L,m0,stimuli/m0_w0_X-X-X.png,stimuli/m0_wW-R_X-X-X.png,stimuli/m0_none_X-X-X.png,stimuli/mW-R_none_X-X-X.png,stimuli/mB-L_none_X-X-X.png,stimuli/mB-L_none_O-X-X.png,stimuli/mB-L_none_X-X-X.png,stimuli/mW-L_none_X-X-X.png,stimuli/m0_none_X-X-X.png,stimuli/m0_wW-L_X-X-X.png,2,8,64,18,,,,,,,,,604.7433082187781,611.4149850730319,612.1542280815775,612.1542280815775,612.1542280815775,613.0433747532079,613.0433747532079,right,0.31922877894248813,605.7986254893476,S3,B-M,2023-01-26_09h04.07.562,knowing_that_K_ONLY,2022.2.5,59.981565911421896,
Does Anna know that the book is here?,Does Anna think that the book is here?,Is the book here?,late,11,mem_2,mem_K,1,1,1,no,O-B-O,O-B-X,O-X-X,M,stimuli/blue-M.png,mB-L,m0,stimuli/m0_w0_O-B-O.png,stimuli/mW-R_w0_O-B-O.png,stimuli/mB-L_w0_O-B-O.png,stimuli/mB-L_w0_O-B-X.png,stimuli/mB-L_w0_O-X-X.png,stimuli/mW-L_w0_O-X-X.png,stimuli/m0_wW-R_O-X-X.png,stimuli/m0_none_O-X-X.png,stimuli/m0_none_O-X-X.png,stimuli/m0_wW-L_O-X-X.png,2,9,65,10,,,,,,,,,613.393523060251,620.0458218351705,620.8045757353539,620.8045757353539,620.8045757353539,621.6932463359553,621.6932463359553,left,0.40582750807516277,614.4543286211556,S3,B-M,2023-01-26_09h04.07.562,knowing_that_K_ONLY,2022.2.5,59.981565911421896,
Does Anna know that the book is here?,Does Anna think that the book is here?,Is the book here?,late,18,mem_9,mem_K,1,1,1,switch,X-O-B,X-B-O,X-X-O,M,stimuli/blue-M.png,mB-L,m0,stimuli/m0_w0_X-O-B.png,stimuli/mW-R_w0_X-O-B.png,stimuli/mB-L_w0_X-O-B.png,stimuli/mB-L_w0_X-B-O.png,stimuli/mB-L_w0_X-X-O.png,stimuli/mW-L_w0_X-X-O.png,stimuli/m0_wW-R_X-X-O.png,stimuli/m0_none_X-X-O.png,stimuli/m0_none_X-X-O.png,stimuli/m0_wW-L_X-X-O.png,2,10,66,17,,,,,,,,,622.1267266395735,628.7991743824678,629.5383298119996,629.5383298119996,629.5383298119996,630.4267610937823,630.4267610937823,left,0.3677578669739887,623.1883159212302,S3,B-M,2023-01-26_09h04.07.562,knowing_that_K_ONLY,2022.2.5,59.981565911421896,
Does Anna know that the book is here?,Does Anna think that the book is here?,Is the book here?,late,13,mem_4,mem_K,1,1,1,no,B-X-O,B-X-O,X-X-O,L,stimuli/blue-L.png,mB-M,m0,stimuli/m0_w0_B-X-O.png,stimuli/mW-R_w0_B-X-O.png,stimuli/mB-M_w0_B-X-O.png,stimuli/mB-M_w0_B-X-O.png,stimuli/mB-M_w0_X-X-O.png,stimuli/mW-L_w0_X-X-O.png,stimuli/m0_wW-R_X-X-O.png,stimuli/m0_none_X-X-O.png,stimuli/m0_none_X-X-O.png,stimuli/m0_wW-L_X-X-O.png,2,11,67,12,,,,,,,,,630.8269738501403,637.49892627378,638.2160656644264,638.2160656644264,638.2160656644264,639.1264616566477,639.1264616566477,left,0.4769863303517923,631.8813107479364,S3,B-M,2023-01-26_09h04.07.562,knowing_that_K_ONLY,2022.2.5,59.981565911421896,
Does Anna know that the book is here?,Does Anna think that the book is here?,Is the book here?,early,3,per_3,per_K,1,1,1,no,O-B-X,O-B-O,O-B-X,M,stimuli/blue-M.png,mB-R,m0,stimuli/m0_w0_O-B-X.png,stimuli/m0_wW-R_O-B-X.png,stimuli/m0_none_O-B-X.png,stimuli/mW-R_none_O-B-X.png,stimuli/mB-R_none_O-B-X.png,stimuli/mB-R_none_O-B-O.png,stimuli/mB-R_none_O-B-X.png,stimuli/mW-L_none_O-B-X.png,stimuli/m0_none_O-B-X.png,stimuli/m0_wW-L_O-B-X.png,2,12,68,2,,,,,,,,,639.6263205035357,646.3020664176438,647.0417996125761,647.0417996125761,647.0417996125761,647.9266000508796,647.9266000508796,left,0.6365958751412109,640.6767618958838,S3,B-M,2023-01-26_09h04.07.562,knowing_that_K_ONLY,2022.2.5,59.981565911421896,
Does Anna know that the book is here?,Does Anna think that the book is here?,Is the book here?,late,12,mem_3,mem_K,1,1,1,no,X-O-B,X-O-B,X-O-X,R,stimuli/blue-R.png,mB-M,m0,stimuli/m0_w0_X-O-B.png,stimuli/mW-R_w0_X-O-B.png,stimuli/mB-M_w0_X-O-B.png,stimuli/mB-M_w0_X-O-B.png,stimuli/mB-M_w0_X-O-X.png,stimuli/mW-L_w0_X-O-X.png,stimuli/m0_wW-R_X-O-X.png,stimuli/m0_none_X-O-X.png,stimuli/m0_none_X-O-X.png,stimuli/m0_wW-L_X-O-X.png,2,13,69,11,,,,,,,,,648.5933958940441,655.2637407761067,656.0004353290424,656.0004353290424,656.0004353290424,656.8935846543172,656.8935846543172,left,0.3167428798042238,649.6492235615151,S3,B-M,2023-01-26_09h04.07.562,knowing_that_K_ONLY,2022.2.5,59.981565911421896,
Does Anna know that the book is here?,Does Anna think that the book is here?,Is the book here?,early,25,no_7,no_K,0,0,0,hide,B-X-X,B-O-O,O-X-X,M,stimuli/blue-M.png,mB-L,m0,stimuli/m0_w0_B-X-X.png,stimuli/m0_wW-R_B-X-X.png,stimuli/m0_none_B-X-X.png,stimuli/mW-R_none_B-X-X.png,stimuli/mB-L_none_B-X-X.png,stimuli/mB-L_none_B-O-O.png,stimuli/mB-L_none_O-X-X.png,stimuli/mW-L_none_O-X-X.png,stimuli/m0_none_O-X-X.png,stimuli/m0_wW-L_O-X-X.png,2,14,70,24,,,,,,,,,657.2267676382326,663.9034024962457,664.6371694048867,664.6371694048867,664.6371694048867,665.5267539720517,665.5267539720517,right,0.31636016233824193,658.2886982536875,S3,B-M,2023-01-26_09h04.07.562,knowing_that_K_ONLY,2022.2.5,59.981565911421896,
Does Anna know that the book is here?,Does Anna think that the book is here?,Is the book here?,early,26,no_8,no_K,0,0,0,hide,X-B-O,O-B-O,X-O-X,R,stimuli/blue-R.png,mB-L,m0,stimuli/m0_w0_X-B-O.png,stimuli/m0_wW-R_X-B-O.png,stimuli/m0_none_X-B-O.png,stimuli/mW-R_none_X-B-O.png,stimuli/mB-L_none_X-B-O.png,stimuli/mB-L_none_O-B-O.png,stimuli/mB-L_none_X-O-X.png,stimuli/mW-L_none_X-O-X.png,stimuli/m0_none_X-O-X.png,stimuli/m0_wW-L_X-O-X.png,2,15,71,25,,,,,,,,,665.8602378687356,672.53607553232,673.2757051079534,673.2757051079534,673.2757051079534,674.1601010143058,674.1601010143058,right,0.3945506562013179,666.9226785602514,S3,B-M,2023-01-26_09h04.07.562,knowing_that_K_ONLY,2022.2.5,59.981565911421896,
Does Anna know that the book is here?,Does Anna think that the book is here?,Is the book here?,late,4,per_4,per_K,1,1,1,no,O-X-B,O-O-B,O-X-B,R,stimuli/blue-R.png,mB-M,m0,stimuli/m0_w0_O-X-B.png,stimuli/mW-R_w0_O-X-B.png,stimuli/mB-M_w0_O-X-B.png,stimuli/mB-M_w0_O-O-B.png,stimuli/mB-M_w0_O-X-B.png,stimuli/mW-L_w0_O-X-B.png,stimuli/m0_wW-R_O-X-B.png,stimuli/m0_none_O-X-B.png,stimuli/m0_none_O-X-B.png,stimuli/m0_wW-L_O-X-B.png,2,16,72,3,,,,,,,,,674.5765977090923,681.2482508239336,681.9865108934464,681.9865108934464,681.9865108934464,682.8769808756188,682.8769808756188,left,0.4616988047491759,675.6336591831641,S3,B-M,2023-01-26_09h04.07.562,knowing_that_K_ONLY,2022.2.5,59.981565911421896,
Does Anna know that the book is here?,Does Anna think that the book is here?,Is the book here?,early,2,per_2,per_K,1,1,1,no,X-X-B,O-X-B,X-X-B,R,stimuli/blue-R.png,mB-L,m0,stimuli/m0_w0_X-X-B.png,stimuli/m0_wW-R_X-X-B.png,stimuli/m0_none_X-X-B.png,stimuli/mW-R_none_X-X-B.png,stimuli/mB-L_none_X-X-B.png,stimuli/mB-L_none_O-X-B.png,stimuli/mB-L_none_X-X-B.png,stimuli/mW-L_none_X-X-B.png,stimuli/m0_none_X-X-B.png,stimuli/m0_wW-L_X-X-B.png,2,17,73,1,,,,,,,,,683.3601044148672,690.0348555201199,690.7503209629795,690.7503209629795,690.7503209629795,691.6603053655708,691.6603053655708,left,0.48608493304345757,684.4154033996165,S3,B-M,2023-01-26_09h04.07.562,knowing_that_K_ONLY,2022.2.5,59.981565911421896,
Does Anna know that the book is here?,Does Anna think that the book is here?,Is the book here?,late,16,mem_7,mem_K,1,1,1,switch,B-X-O,O-X-B,O-X-X,R,stimuli/blue-R.png,mB-M,m0,stimuli/m0_w0_B-X-O.png,stimuli/mW-R_w0_B-X-O.png,stimuli/mB-M_w0_B-X-O.png,stimuli/mB-M_w0_O-X-B.png,stimuli/mB-M_w0_O-X-X.png,stimuli/mW-L_w0_O-X-X.png,stimuli/m0_wW-R_O-X-X.png,stimuli/m0_none_O-X-X.png,stimuli/m0_none_O-X-X.png,stimuli/m0_wW-L_O-X-X.png,2,18,74,15,,,,,,,,,692.1768068082165,698.844422301976,699.5665527390083,699.5665527390083,699.5665527390083,700.476676690625,700.476676690625,left,0.4793358884053305,693.2354690871434,S3,B-M,2023-01-26_09h04.07.562,knowing_that_K_ONLY,2022.2.5,59.981565911421896,
Does Anna know that the book is here?,Does Anna think that the book is here?,Is the book here?,late,14,mem_5,mem_K,1,1,1,no,O-B-X,O-B-X,O-X-X,M,stimuli/blue-M.png,mB-L,m0,stimuli/m0_w0_O-B-X.png,stimuli/mW-R_w0_O-B-X.png,stimuli/mB-L_w0_O-B-X.png,stimuli/mB-L_w0_O-B-X.png,stimuli/mB-L_w0_O-X-X.png,stimuli/mW-L_w0_O-X-X.png,stimuli/m0_wW-R_O-X-X.png,stimuli/m0_none_O-X-X.png,stimuli/m0_none_O-X-X.png,stimuli/m0_wW-L_O-X-X.png,2,19,75,13,,,,,,,,,700.9768624353455,707.6488366735866,708.3906797870295,708.3906797870295,708.3906797870295,709.2765048687579,709.2765048687579,left,0.32707143924199045,702.037475835532,S3,B-M,2023-01-26_09h04.07.562,knowing_that_K_ONLY,2022.2.5,59.981565911421896,
Does Anna know that the book is here?,Does Anna think that the book is here?,Is the book here?,early,20,no_2,no_K,0,0,0,no,X-O-X,O-O-X,X-O-X,L,stimuli/blue-L.png,mB-L,m0,stimuli/m0_w0_X-O-X.png,stimuli/m0_wW-R_X-O-X.png,stimuli/m0_none_X-O-X.png,stimuli/mW-R_none_X-O-X.png,stimuli/mB-L_none_X-O-X.png,stimuli/mB-L_none_O-O-X.png,stimuli/mB-L_none_X-O-X.png,stimuli/mW-L_none_X-O-X.png,stimuli/m0_none_X-O-X.png,stimuli/m0_wW-L_X-O-X.png,2,20,76,19,,,,,,,,,709.6265678423224,716.3018668785226,717.0178876304999,717.0178876304999,717.0178876304999,717.9267319007777,717.9267319007777,right,0.22056209854781628,710.6937018756289,S3,B-M,2023-01-26_09h04.07.562,knowing_that_K_ONLY,2022.2.5,59.981565911421896,
Does Anna know that the book is here?,Does Anna think that the book is here?,Is the book here?,late,17,mem_8,mem_K,1,1,1,switch,O-X-B,B-X-O,X-X-O,L,stimuli/blue-L.png,mB-M,m0,stimuli/m0_w0_O-X-B.png,stimuli/mW-R_w0_O-X-B.png,stimuli/mB-M_w0_O-X-B.png,stimuli/mB-M_w0_B-X-O.png,stimuli/mB-M_w0_X-X-O.png,stimuli/mW-L_w0_X-X-O.png,stimuli/m0_wW-R_X-X-O.png,stimuli/m0_none_X-X-O.png,stimuli/m0_none_X-X-O.png,stimuli/m0_wW-L_X-X-O.png,2,21,77,16,,,,,,,,,718.1769068986177,724.8478600223316,725.5876086157514,725.5876086157514,725.5876086157514,726.4770632577129,726.4770632577129,left,0.4936183397658169,719.2313188642729,S3,B-M,2023-01-26_09h04.07.562,knowing_that_K_ONLY,2022.2.5,59.981565911421896,
Does Anna know that the book is here?,Does Anna think that the book is here?,Is the book here?,early,27,no_9,no_K,0,0,0,hide,X-X-B,O-O-B,X-X-O,L,stimuli/blue-L.png,mB-M,m0,stimuli/m0_w0_X-X-B.png,stimuli/m0_wW-R_X-X-B.png,stimuli/m0_none_X-X-B.png,stimuli/mW-R_none_X-X-B.png,stimuli/mB-M_none_X-X-B.png,stimuli/mB-M_none_O-O-B.png,stimuli/mB-M_none_X-X-O.png,stimuli/mW-L_none_X-X-O.png,stimuli/m0_none_X-X-O.png,stimuli/m0_wW-L_X-X-O.png,2,22,78,26,,,,,,,,,726.9935602091718,733.6641071968479,734.4059451774228,734.4059451774228,734.4059451774228,735.2935292196926,735.2935292196926,right,0.589122548350133,728.0487222112715,S3,B-M,2023-01-26_09h04.07.562,knowing_that_K_ONLY,2022.2.5,59.981565911421896,
Does Anna know that the book is here?,Does Anna think that the book is here?,Is the book here?,early,21,no_3,no_K,0,0,0,no,X-X-O,X-O-O,X-X-O,M,stimuli/blue-M.png,mB-M,m0,stimuli/m0_w0_X-X-O.png,stimuli/m0_wW-R_X-X-O.png,stimuli/m0_none_X-X-O.png,stimuli/mW-R_none_X-X-O.png,stimuli/mB-M_none_X-X-O.png,stimuli/mB-M_none_X-O-O.png,stimuli/mB-M_none_X-X-O.png,stimuli/mW-L_none_X-X-O.png,stimuli/m0_none_X-X-O.png,stimuli/m0_wW-L_X-X-O.png,2,23,79,20,,,,,,,,,735.9101656560088,742.586817516596,743.3243875397602,743.3243875397602,743.3243875397602,744.210297634243,744.210297634243,right,0.32088540331460536,736.962651523063,S3,B-M,2023-01-26_09h04.07.562,knowing_that_K_ONLY,2022.2.5,59.981565911421896,
Does Anna know that the book is here?,Does Anna think that the book is here?,Is the book here?,early,1,per_1,per_K,1,1,1,no,B-X-X,B-O-X,B-X-X,L,stimuli/blue-L.png,mB-M,m0,stimuli/m0_w0_B-X-X.png,stimuli/m0_wW-R_B-X-X.png,stimuli/m0_none_B-X-X.png,stimuli/mW-R_none_B-X-X.png,stimuli/mB-M_none_B-X-X.png,stimuli/mB-M_none_B-O-X.png,stimuli/mB-M_none_B-X-X.png,stimuli/mW-L_none_B-X-X.png,stimuli/m0_none_B-X-X.png,stimuli/m0_wW-L_B-X-X.png,2,24,80,0,,,,,,,,,744.5602797655156,751.2114210848231,751.9691452087136,751.9691452087136,751.9691452087136,752.8600951115368,752.8600951115368,left,1.1189103502547368,745.6210574165452,S3,B-M,2023-01-26_09h04.07.562,knowing_that_K_ONLY,2022.2.5,59.981565911421896,
Does Anna know that the book is here?,Does Anna think that the book is here?,Is the book here?,late,5,per_5,per_K,1,1,1,no,X-B-O,O-B-O,X-B-O,M,stimuli/blue-M.png,mB-L,m0,stimuli/m0_w0_X-B-O.png,stimuli/mW-R_w0_X-B-O.png,stimuli/mB-L_w0_X-B-O.png,stimuli/mB-L_w0_O-B-O.png,stimuli/mB-L_w0_X-B-O.png,stimuli/mW-L_w0_X-B-O.png,stimuli/m0_wW-R_X-B-O.png,stimuli/m0_none_X-B-O.png,stimuli/m0_none_X-B-O.png,stimuli/m0_wW-L_X-B-O.png,2,25,81,4,,,,,,,,,754.0101469852962,760.6839530062862,761.4242232246324,761.4242232246324,761.4242232246324,762.310237579979,762.310237579979,left,0.3331432695267722,755.0555180929368,S3,B-M,2023-01-26_09h04.07.562,knowing_that_K_ONLY,2022.2.5,59.981565911421896,
Does Anna know that the book is here?,Does Anna think that the book is here?,Is the book here?,late,15,mem_6,mem_K,1,1,1,no,X-B-O,X-B-X,X-X-X,M,stimuli/blue-M.png,mB-R,m0,stimuli/m0_w0_X-B-O.png,stimuli/mW-R_w0_X-B-O.png,stimuli/mB-R_w0_X-B-O.png,stimuli/mB-R_w0_X-B-X.png,stimuli/mB-R_w0_X-X-X.png,stimuli/mW-L_w0_X-X-X.png,stimuli/m0_wW-R_X-X-X.png,stimuli/m0_none_X-X-X.png,stimuli/m0_none_X-X-X.png,stimuli/m0_wW-L_X-X-X.png,2,26,82,14,,,,,,,,,762.6602771349717,769.3318471619859,770.0721067938721,770.0721067938721,770.0721067938721,770.9601739648497,770.9601739648497,left,0.9321981210960075,763.7149852013681,S3,B-M,2023-01-26_09h04.07.562,knowing_that_K_ONLY,2022.2.5,59.981565911421896,
Does Anna know that the book is here?,Does Anna think that the book is here?,Is the book here?,late,6,per_6,per_K,1,1,1,no,X-B-X,O-B-X,X-B-X,M,stimuli/blue-M.png,mB-L,m0,stimuli/m0_w0_X-B-X.png,stimuli/mW-R_w0_X-B-X.png,stimuli/mB-L_w0_X-B-X.png,stimuli/mB-L_w0_O-B-X.png,stimuli/mB-L_w0_X-B-X.png,stimuli/mW-L_w0_X-B-X.png,stimuli/m0_wW-R_X-B-X.png,stimuli/m0_none_X-B-X.png,stimuli/m0_none_X-B-X.png,stimuli/m0_wW-L_X-B-X.png,2,27,83,5,,,,,,,,,771.9102872401709,778.5802946379408,779.3019281517481,779.3019281517481,779.3019281517481,780.2101683507208,780.2101683507208,left,0.35278986068442464,772.9636376701528,S3,B-M,2023-01-26_09h04.07.562,knowing_that_K_ONLY,2022.2.5,59.981565911421896,
