K_text,B_text,T_text,Anna_exit,trial_num,trial_code,cond,K_hit,B_hit,T_hit,book_move,start_shelf,mid_shelf,end_shelf,rectangle,rectangle_path,Todd_mid,Todd_final,frame_1,frame_2,frame_3,frame_4,frame_5,frame_6,frame_7,frame_8,frame_9,frame_10,trials.thisRepN,trials.thisTrialN,trials.thisN,trials.thisIndex,frames.thisRepN,frames.thisTrialN,frames.thisN,frames.thisIndex,sessionInst.started,startSession.started,startSession.keys,startSession.rt,crossText.started,movingImage.started,staticImage.started,promptText3.started,rectImage.started,respText.started,keyResp.started,keyResp.keys,keyResp.rt,crossText.stopped,subject,session,date,expName,psychopyVersion,frameRate,
,,,,,,,,,,,,,,,,,,,,,,,,,,,,,,,,,,,,21.950639391550794,21.950639391550794,left,18.40408686711453,,,,,,,,,,,S3,K-M,2023-01-26_09h30.35.157,knowing_that_K_ONLY,2022.2.5,59.919420071189926,
Does Anna know that the book is here?,Does Anna think that the book is here?,Is the book here?,late,14,mem_5,mem_K,1,1,1,no,O-B-X,O-B-X,O-X-X,M,stimuli/blue-M.png,mB-L,m0,stimuli/m0_w0_O-B-X.png,stimuli/mW-R_w0_O-B-X.png,stimuli/mB-L_w0_O-B-X.png,stimuli/mB-L_w0_O-B-X.png,stimuli/mB-L_w0_O-X-X.png,stimuli/mW-L_w0_O-X-X.png,stimuli/m0_wW-R_O-X-X.png,stimuli/m0_none_O-X-X.png,stimuli/m0_none_O-X-X.png,stimuli/m0_wW-L_O-X-X.png,0,0,0,13,,,,,,,,,40.4220270102378,47.03815497457981,47.82189265813213,47.82189265813213,47.82189265813213,48.6864940833766,48.6864940833766,right,2.548290509963408,,S3,K-M,2023-01-26_09h30.35.157,knowing_that_K_ONLY,2022.2.5,59.919420071189926,
Does Anna know that the book is here?,Does Anna think that the book is here?,Is the book here?,late,5,per_5,per_K,1,1,1,no,X-B-O,O-B-O,X-B-O,M,stimuli/blue-M.png,mB-L,m0,stimuli/m0_w0_X-B-O.png,stimuli/mW-R_w0_X-B-O.png,stimuli/mB-L_w0_X-B-O.png,stimuli/mB-L_w0_O-B-O.png,stimuli/mB-L_w0_X-B-O.png,stimuli/mW-L_w0_X-B-O.png,stimuli/m0_wW-R_X-B-O.png,stimuli/m0_none_X-B-O.png,stimuli/m0_none_X-B-O.png,stimuli/m0_wW-L_X-B-O.png,0,1,1,4,,,,,,,,,51.25315204565413,57.927971161087044,58.6681752941804,58.6681752941804,58.6681752941804,59.55326541722752,59.55326541722752,left,0.22601128462702036,52.3155641858466,S3,K-M,2023-01-26_09h30.35.157,knowing_that_K_ONLY,2022.2.5,59.919420071189926,
Does Anna know that the book is here?,Does Anna think that the book is here?,Is the book here?,early,1,per_1,per_K,1,1,1,no,B-X-X,B-O-X,B-X-X,L,stimuli/blue-L.png,mB-M,m0,stimuli/m0_w0_B-X-X.png,stimuli/m0_wW-R_B-X-X.png,stimuli/m0_none_B-X-X.png,stimuli/mW-R_none_B-X-X.png,stimuli/mB-M_none_B-X-X.png,stimuli/mB-M_none_B-O-X.png,stimuli/mB-M_none_B-X-X.png,stimuli/mW-L_none_B-X-X.png,stimuli/m0_none_B-X-X.png,stimuli/m0_wW-L_B-X-X.png,0,2,2,0,,,,,,,,,59.80319243471604,66.45587713515852,67.19602448621299,67.19602448621299,67.19602448621299,68.10315534996334,68.10315534996334,left,0.6592468160670251,60.85806571447756,S3,K-M,2023-01-26_09h30.35.157,knowing_that_K_ONLY,2022.2.5,59.919420071189926,
Does Anna know that the book is here?,Does Anna think that the book is here?,Is the book here?,late,16,mem_7,mem_K,1,1,1,switch,B-X-O,O-X-B,O-X-X,R,stimuli/blue-R.png,mB-M,m0,stimuli/m0_w0_B-X-O.png,stimuli/mW-R_w0_B-X-O.png,stimuli/mB-M_w0_B-X-O.png,stimuli/mB-M_w0_O-X-B.png,stimuli/mB-M_w0_O-X-X.png,stimuli/mW-L_w0_O-X-X.png,stimuli/m0_wW-R_O-X-X.png,stimuli/m0_none_O-X-X.png,stimuli/m0_none_O-X-X.png,stimuli/m0_wW-L_O-X-X.png,0,3,3,15,,,,,,,,,68.78670703212265,75.46182096516714,76.1753715374507,76.1753715374507,76.1753715374507,77.08654643839691,77.08654643839691,right,1.2356857277918607,69.84244679973926,S3,K-M,2023-01-26_09h30.35.157,knowing_that_K_ONLY,2022.2.5,59.919420071189926,
Does Anna know that the book is here?,Does Anna think that the book is here?,Is the book here?,early,25,no_7,no_K,0,0,0,hide,B-X-X,B-O-O,O-X-X,M,stimuli/blue-M.png,mB-L,m0,stimuli/m0_w0_B-X-X.png,stimuli/m0_wW-R_B-X-X.png,stimuli/m0_none_B-X-X.png,stimuli/mW-R_none_B-X-X.png,stimuli/mB-L_none_B-X-X.png,stimuli/mB-L_none_B-O-O.png,stimuli/mB-L_none_O-X-X.png,stimuli/mW-L_none_O-X-X.png,stimuli/m0_none_O-X-X.png,stimuli/m0_wW-L_O-X-X.png,0,4,4,24,,,,,,,,,78.35324565588962,85.0277369110845,85.76780021179002,85.76780021179002,85.76780021179002,86.65349151892588,86.65349151892588,right,0.5903047395404428,79.41019516985398,S3,K-M,2023-01-26_09h30.35.157,knowing_that_K_ONLY,2022.2.5,59.919420071189926,
Does Anna know that the book is here?,Does Anna think that the book is here?,Is the book here?,early,20,no_2,no_K,0,0,0,no,X-O-X,O-O-X,X-O-X,L,stimuli/blue-L.png,mB-L,m0,stimuli/m0_w0_X-O-X.png,stimuli/m0_wW-R_X-O-X.png,stimuli/m0_none_X-O-X.png,stimuli/mW-R_none_X-O-X.png,stimuli/mB-L_none_X-O-X.png,stimuli/mB-L_none_O-O-X.png,stimuli/mB-L_none_X-O-X.png,stimuli/mW-L_none_X-O-X.png,stimuli/m0_none_X-O-X.png,stimuli/m0_wW-L_X-O-X.png,0,5,5,19,,,,,,,,,87.26981068158057,93.92277319706045,94.66091713600326,94.66091713600326,94.66091713600326,95.55341523210518,95.55341523210518,right,0.1775861366186291,88.33369755116291,S3,K-M,2023-01-26_09h30.35.157,knowing_that_K_ONLY,2022.2.5,59.919420071189926,
Does Anna know that the book is here?,Does Anna think that the book is here?,Is the book here?,late,13,mem_4,mem_K,1,1,1,no,B-X-O,B-X-O,X-X-O,L,stimuli/blue-L.png,mB-M,m0,stimuli/m0_w0_B-X-O.png,stimuli/mW-R_w0_B-X-O.png,stimuli/mB-M_w0_B-X-O.png,stimuli/mB-M_w0_B-X-O.png,stimuli/mB-M_w0_X-X-O.png,stimuli/mW-L_w0_X-X-O.png,stimuli/m0_wW-R_X-X-O.png,stimuli/m0_none_X-X-O.png,stimuli/m0_none_X-X-O.png,stimuli/m0_wW-L_X-X-O.png,0,6,6,12,,,,,,,,,95.75322550942656,102.42881807987578,103.16754138830584,103.16754138830584,103.16754138830584,104.05327632452827,104.05327632452827,right,0.98135826154612,96.81700908066705,S3,K-M,2023-01-26_09h30.35.157,knowing_that_K_ONLY,2022.2.5,59.919420071189926,
Does Anna know that the book is here?,Does Anna think that the book is here?,Is the book here?,early,9,per_9,per_K,1,1,1,switch,X-O-B,X-B-O,X-B-X,M,stimuli/blue-M.png,mB-R,m0,stimuli/m0_w0_X-O-B.png,stimuli/m0_wW-R_X-O-B.png,stimuli/m0_none_X-O-B.png,stimuli/mW-R_none_X-O-B.png,stimuli/mB-R_none_X-O-B.png,stimuli/mB-R_none_X-B-O.png,stimuli/mB-R_none_X-B-X.png,stimuli/mW-L_none_X-B-X.png,stimuli/m0_none_X-B-X.png,stimuli/m0_wW-L_X-B-X.png,0,7,7,8,,,,,,,,,105.05311624403112,111.72796647739597,112.4647774817422,112.4647774817422,112.4647774817422,113.35343909973744,113.35343909973744,left,0.46505315008107573,106.10993647470605,S3,K-M,2023-01-26_09h30.35.157,knowing_that_K_ONLY,2022.2.5,59.919420071189926,
Does Anna know that the book is here?,Does Anna think that the book is here?,Is the book here?,late,15,mem_6,mem_K,1,1,1,no,X-B-O,X-B-X,X-X-X,M,stimuli/blue-M.png,mB-R,m0,stimuli/m0_w0_X-B-O.png,stimuli/mW-R_w0_X-B-O.png,stimuli/mB-R_w0_X-B-O.png,stimuli/mB-R_w0_X-B-X.png,stimuli/mB-R_w0_X-X-X.png,stimuli/mW-L_w0_X-X-X.png,stimuli/m0_wW-R_X-X-X.png,stimuli/m0_none_X-X-X.png,stimuli/m0_none_X-X-X.png,stimuli/m0_wW-L_X-X-X.png,0,8,8,14,,,,,,,,,113.83671662420966,120.5117612638278,121.24834129028022,121.24834129028022,121.24834129028022,122.13662885257509,122.13662885257509,right,0.618044858565554,114.8933924935991,S3,K-M,2023-01-26_09h30.35.157,knowing_that_K_ONLY,2022.2.5,59.919420071189926,
Does Anna know that the book is here?,Does Anna think that the book is here?,Is the book here?,early,21,no_3,no_K,0,0,0,no,X-X-O,X-O-O,X-X-O,M,stimuli/blue-M.png,mB-M,m0,stimuli/m0_w0_X-X-O.png,stimuli/m0_wW-R_X-X-O.png,stimuli/m0_none_X-X-O.png,stimuli/mW-R_none_X-X-O.png,stimuli/mB-M_none_X-X-O.png,stimuli/mB-M_none_X-O-O.png,stimuli/mB-M_none_X-X-O.png,stimuli/mW-L_none_X-X-O.png,stimuli/m0_none_X-X-O.png,stimuli/m0_wW-L_X-X-O.png,0,9,9,20,,,,,,,,,122.78679557365831,129.4605297348462,130.17913230601698,130.17913230601698,130.17913230601698,131.08664588723332,131.08664588723332,right,0.21997313864994794,123.8467638399452,S3,K-M,2023-01-26_09h30.35.157,knowing_that_K_ONLY,2022.2.5,59.919420071189926,
Does Anna know that the book is here?,Does Anna think that the book is here?,Is the book here?,late,12,mem_3,mem_K,1,1,1,no,X-O-B,X-O-B,X-O-X,R,stimuli/blue-R.png,mB-M,m0,stimuli/m0_w0_X-O-B.png,stimuli/mW-R_w0_X-O-B.png,stimuli/mB-M_w0_X-O-B.png,stimuli/mB-M_w0_X-O-B.png,stimuli/mB-M_w0_X-O-X.png,stimuli/mW-L_w0_X-O-X.png,stimuli/m0_wW-R_X-O-X.png,stimuli/m0_none_X-O-X.png,stimuli/m0_none_X-O-X.png,stimuli/m0_wW-L_X-O-X.png,0,10,10,11,,,,,,,,,131.33684205799364,138.01208944490645,138.75077393616084,138.75077393616084,138.75077393616084,139.63683256227523,139.63683256227523,right,0.22164901136420667,132.4013137506554,S3,K-M,2023-01-26_09h30.35.157,knowing_that_K_ONLY,2022.2.5,59.919420071189926,
Does Anna know that the book is here?,Does Anna think that the book is here?,Is the book here?,early,3,per_3,per_K,1,1,1,no,O-B-X,O-B-O,O-B-X,M,stimuli/blue-M.png,mB-R,m0,stimuli/m0_w0_O-B-X.png,stimuli/m0_wW-R_O-B-X.png,stimuli/m0_none_O-B-X.png,stimuli/mW-R_none_O-B-X.png,stimuli/mB-R_none_O-B-X.png,stimuli/mB-R_none_O-B-O.png,stimuli/mB-R_none_O-B-X.png,stimuli/mW-L_none_O-B-X.png,stimuli/m0_none_O-B-X.png,stimuli/m0_wW-L_O-B-X.png,0,11,11,2,,,,,,,,,139.8866671884898,146.56284073239658,147.29947369126603,147.29947369126603,147.29947369126603,148.18682098120917,148.18682098120917,left,0.06507875013630837,140.95037954149302,S3,K-M,2023-01-26_09h30.35.157,knowing_that_K_ONLY,2022.2.5,59.919420071189926,
Does Anna know that the book is here?,Does Anna think that the book is here?,Is the book here?,early,27,no_9,no_K,0,0,0,hide,X-X-B,O-O-B,X-X-O,L,stimuli/blue-L.png,mB-M,m0,stimuli/m0_w0_X-X-B.png,stimuli/m0_wW-R_X-X-B.png,stimuli/m0_none_X-X-B.png,stimuli/mW-R_none_X-X-B.png,stimuli/mB-M_none_X-X-B.png,stimuli/mB-M_none_O-O-B.png,stimuli/mB-M_none_X-X-O.png,stimuli/mW-L_none_X-X-O.png,stimuli/m0_none_X-X-O.png,stimuli/m0_wW-L_X-X-O.png,0,12,12,26,,,,,,,,,148.27007630607113,154.9217665186152,155.66184842586517,155.66184842586517,155.66184842586517,156.56995452940464,156.56995452940464,right,0.0165734012844041,149.32740757521242,S3,K-M,2023-01-26_09h30.35.157,knowing_that_K_ONLY,2022.2.5,59.919420071189926,
Does Anna know that the book is here?,Does Anna think that the book is here?,Is the book here?,late,11,mem_2,mem_K,1,1,1,no,O-B-O,O-B-X,O-X-X,M,stimuli/blue-M.png,mB-L,m0,stimuli/m0_w0_O-B-O.png,stimuli/mW-R_w0_O-B-O.png,stimuli/mB-L_w0_O-B-O.png,stimuli/mB-L_w0_O-B-X.png,stimuli/mB-L_w0_O-X-X.png,stimuli/mW-L_w0_O-X-X.png,stimuli/m0_wW-R_O-X-X.png,stimuli/m0_none_O-X-X.png,stimuli/m0_none_O-X-X.png,stimuli/m0_wW-L_O-X-X.png,0,13,13,10,,,,,,,,,156.6032817461528,163.2793638613075,163.99494222668,163.99494222668,163.99494222668,164.90352793002967,164.90352793002967,right,0.12421902490314096,157.6598183872411,S3,K-M,2023-01-26_09h30.35.157,knowing_that_K_ONLY,2022.2.5,59.919420071189926,
Does Anna know that the book is here?,Does Anna think that the book is here?,Is the book here?,early,8,per_8,per_K,1,1,1,switch,O-X-B,B-X-O,B-X-X,L,stimuli/blue-L.png,mB-L,m0,stimuli/m0_w0_O-X-B.png,stimuli/m0_wW-R_O-X-B.png,stimuli/m0_none_O-X-B.png,stimuli/mW-R_none_O-X-B.png,stimuli/mB-L_none_O-X-B.png,stimuli/mB-L_none_B-X-O.png,stimuli/mB-L_none_B-X-X.png,stimuli/mW-L_none_B-X-X.png,stimuli/m0_none_B-X-X.png,stimuli/m0_wW-L_B-X-X.png,0,14,14,7,,,,,,,,,165.05329172313213,171.72822504432406,172.46811735723168,172.46811735723168,172.46811735723168,173.35336306958925,173.35336306958925,left,0.1300377418519929,166.11534616840072,S3,K-M,2023-01-26_09h30.35.157,knowing_that_K_ONLY,2022.2.5,59.919420071189926,
Does Anna know that the book is here?,Does Anna think that the book is here?,Is the book here?,late,17,mem_8,mem_K,1,1,1,switch,O-X-B,B-X-O,X-X-O,L,stimuli/blue-L.png,mB-M,m0,stimuli/m0_w0_O-X-B.png,stimuli/mW-R_w0_O-X-B.png,stimuli/mB-M_w0_O-X-B.png,stimuli/mB-M_w0_B-X-O.png,stimuli/mB-M_w0_X-X-O.png,stimuli/mW-L_w0_X-X-O.png,stimuli/m0_wW-R_X-X-O.png,stimuli/m0_none_X-X-O.png,stimuli/m0_none_X-X-O.png,stimuli/m0_wW-L_X-X-O.png,0,15,15,16,,,,,,,,,173.50355288852006,180.17981272831094,180.91766666178592,180.91766666178592,180.91766666178592,181.80348949786276,181.80348949786276,right,0.3035489453468472,174.56543313805014,S3,K-M,2023-01-26_09h30.35.157,knowing_that_K_ONLY,2022.2.5,59.919420071189926,
Does Anna know that the book is here?,Does Anna think that the book is here?,Is the book here?,late,4,per_4,per_K,1,1,1,no,O-X-B,O-O-B,O-X-B,R,stimuli/blue-R.png,mB-M,m0,stimuli/m0_w0_O-X-B.png,stimuli/mW-R_w0_O-X-B.png,stimuli/mB-M_w0_O-X-B.png,stimuli/mB-M_w0_O-O-B.png,stimuli/mB-M_w0_O-X-B.png,stimuli/mW-L_w0_O-X-B.png,stimuli/m0_wW-R_O-X-B.png,stimuli/m0_none_O-X-B.png,stimuli/m0_none_O-X-B.png,stimuli/m0_wW-L_O-X-B.png,0,16,16,3,,,,,,,,,182.13671258208342,188.813117103884,189.54883385053836,189.54883385053836,189.54883385053836,190.43673099612352,190.43673099612352,left,0.2863099775277078,183.20145856100135,S3,K-M,2023-01-26_09h30.35.157,knowing_that_K_ONLY,2022.2.5,59.919420071189926,
Does Anna know that the book is here?,Does Anna think that the book is here?,Is the book here?,early,24,no_6,no_K,0,0,0,no,X-X-X,X-X-O,X-X-X,R,stimuli/blue-R.png,mB-R,m0,stimuli/m0_w0_X-X-X.png,stimuli/m0_wW-R_X-X-X.png,stimuli/m0_none_X-X-X.png,stimuli/mW-R_none_X-X-X.png,stimuli/mB-R_none_X-X-X.png,stimuli/mB-R_none_X-X-O.png,stimuli/mB-R_none_X-X-X.png,stimuli/mW-L_none_X-X-X.png,stimuli/m0_none_X-X-X.png,stimuli/m0_wW-L_X-X-X.png,0,17,17,23,,,,,,,,,190.75338943954557,197.4049022482941,198.16433721221983,198.16433721221983,198.16433721221983,199.0534902998479,199.0534902998479,right,0.09435647586360574,191.8076268886216,S3,K-M,2023-01-26_09h30.35.157,knowing_that_K_ONLY,2022.2.5,59.919420071189926,
Does Anna know that the book is here?,Does Anna think that the book is here?,Is the book here?,early,28,no_10,no_K,0,0,0,hide,O-B-O,O-B-O,X-O-X,L,stimuli/blue-L.png,mB-M,m0,stimuli/m0_w0_O-B-O.png,stimuli/m0_wW-R_O-B-O.png,stimuli/m0_none_O-B-O.png,stimuli/mW-R_none_O-B-O.png,stimuli/mB-M_none_O-B-O.png,stimuli/mB-M_none_O-B-O.png,stimuli/mB-M_none_X-O-X.png,stimuli/mW-L_none_X-O-X.png,stimuli/m0_none_X-O-X.png,stimuli/m0_wW-L_X-O-X.png,0,18,18,27,,,,,,,,,199.17005583888385,205.8419229290448,206.5823801754741,206.5823801754741,206.5823801754741,207.4702179725282,207.4702179725282,right,0.39829092705622315,200.22482966980897,S3,K-M,2023-01-26_09h30.35.157,knowing_that_K_ONLY,2022.2.5,59.919420071189926,
Does Anna know that the book is here?,Does Anna think that the book is here?,Is the book here?,early,22,no_4,no_K,0,0,0,no,O-X-X,O-O-X,O-X-X,M,stimuli/blue-M.png,mB-M,m0,stimuli/m0_w0_O-X-X.png,stimuli/m0_wW-R_O-X-X.png,stimuli/m0_none_O-X-X.png,stimuli/mW-R_none_O-X-X.png,stimuli/mB-M_none_O-X-X.png,stimuli/mB-M_none_O-O-X.png,stimuli/mB-M_none_O-X-X.png,stimuli/mW-L_none_O-X-X.png,stimuli/m0_none_O-X-X.png,stimuli/m0_wW-L_O-X-X.png,0,19,19,21,,,,,,,,,207.88621004484594,214.5646988209337,215.27801873616409,215.27801873616409,215.27801873616409,216.1703137641307,216.1703137641307,right,0.9044121608603746,208.94601598498411,S3,K-M,2023-01-26_09h30.35.157,knowing_that_K_ONLY,2022.2.5,59.919420071189926,
Does Anna know that the book is here?,Does Anna think that the book is here?,Is the book here?,early,7,per_7,per_K,1,1,1,switch,B-X-O,O-X-B,X-X-B,R,stimuli/blue-R.png,mB-R,m0,stimuli/m0_w0_B-X-O.png,stimuli/m0_wW-R_B-X-O.png,stimuli/m0_none_B-X-O.png,stimuli/mW-R_none_B-X-O.png,stimuli/mB-R_none_B-X-O.png,stimuli/mB-R_none_O-X-B.png,stimuli/mB-R_none_X-X-B.png,stimuli/mW-L_none_X-X-B.png,stimuli/m0_none_X-X-B.png,stimuli/m0_wW-L_X-X-B.png,0,20,20,6,,,,,,,,,217.10340108466335,223.7788431987865,224.49557581171393,224.49557581171393,224.49557581171393,225.40358310809825,225.40358310809825,left,0.2647911827079952,218.16629186237697,S3,K-M,2023-01-26_09h30.35.157,knowing_that_K_ONLY,2022.2.5,59.919420071189926,
Does Anna know that the book is here?,Does Anna think that the book is here?,Is the book here?,late,6,per_6,per_K,1,1,1,no,X-B-X,O-B-X,X-B-X,M,stimuli/blue-M.png,mB-L,m0,stimuli/m0_w0_X-B-X.png,stimuli/mW-R_w0_X-B-X.png,stimuli/mB-L_w0_X-B-X.png,stimuli/mB-L_w0_O-B-X.png,stimuli/mB-L_w0_X-B-X.png,stimuli/mW-L_w0_X-B-X.png,stimuli/m0_wW-R_X-B-X.png,stimuli/m0_none_X-B-X.png,stimuli/m0_none_X-B-X.png,stimuli/m0_wW-L_X-B-X.png,0,21,21,5,,,,,,,,,225.68678665533662,232.36076270171907,233.0998966373736,233.0998966373736,233.0998966373736,233.9868179014884,233.9868179014884,left,0.1519491991493851,226.75231635500677,S3,K-M,2023-01-26_09h30.35.157,knowing_that_K_ONLY,2022.2.5,59.919420071189926,
Does Anna know that the book is here?,Does Anna think that the book is here?,Is the book here?,late,18,mem_9,mem_K,1,1,1,switch,X-O-B,X-B-O,X-X-O,M,stimuli/blue-M.png,mB-L,m0,stimuli/m0_w0_X-O-B.png,stimuli/mW-R_w0_X-O-B.png,stimuli/mB-L_w0_X-O-B.png,stimuli/mB-L_w0_X-B-O.png,stimuli/mB-L_w0_X-X-O.png,stimuli/mW-L_w0_X-X-O.png,stimuli/m0_wW-R_X-X-O.png,stimuli/m0_none_X-X-O.png,stimuli/m0_none_X-X-O.png,stimuli/m0_wW-L_X-X-O.png,0,22,22,17,,,,,,,,,234.17010652564932,240.82187405158766,241.56115683971439,241.56115683971439,241.56115683971439,242.47012076934334,242.47012076934334,right,0.09390157787129283,235.22614143160172,S3,K-M,2023-01-26_09h30.35.157,knowing_that_K_ONLY,2022.2.5,59.919420071189926,
Does Anna know that the book is here?,Does Anna think that the book is here?,Is the book here?,late,10,mem_1,mem_K,1,1,1,no,O-X-B,X-X-B,X-X-X,R,stimuli/blue-R.png,mB-M,m0,stimuli/m0_w0_O-X-B.png,stimuli/mW-R_w0_O-X-B.png,stimuli/mB-M_w0_O-X-B.png,stimuli/mB-M_w0_X-X-B.png,stimuli/mB-M_w0_X-X-X.png,stimuli/mW-L_w0_X-X-X.png,stimuli/m0_wW-R_X-X-X.png,stimuli/m0_none_X-X-X.png,stimuli/m0_none_X-X-X.png,stimuli/m0_wW-L_X-X-X.png,0,23,23,9,,,,,,,,,242.58701865980402,249.25990141090006,249.99854002753273,249.99854002753273,249.99854002753273,250.8869947278872,250.8869947278872,right,0.10804897116031498,243.64408494590316,S3,K-M,2023-01-26_09h30.35.157,knowing_that_K_ONLY,2022.2.5,59.919420071189926,
Does Anna know that the book is here?,Does Anna think that the book is here?,Is the book here?,early,19,no_1,no_K,0,0,0,no,X-X-X,O-X-X,X-X-X,L,stimuli/blue-L.png,mB-L,m0,stimuli/m0_w0_X-X-X.png,stimuli/m0_wW-R_X-X-X.png,stimuli/m0_none_X-X-X.png,stimuli/mW-R_none_X-X-X.png,stimuli/mB-L_none_X-X-X.png,stimuli/mB-L_none_O-X-X.png,stimuli/mB-L_none_X-X-X.png,stimuli/mW-L_none_X-X-X.png,stimuli/m0_none_X-X-X.png,stimuli/m0_wW-L_X-X-X.png,0,24,24,18,,,,,,,,,251.02032220130786,257.6696737629827,258.41042999736965,258.41042999736965,258.41042999736965,259.32014203851577,259.32014203851577,right,0.4430605297675356,252.07909098663367,S3,K-M,2023-01-26_09h30.35.157,knowing_that_K_ONLY,2022.2.5,59.919420071189926,
Does Anna know that the book is here?,Does Anna think that the book is here?,Is the book here?,early,2,per_2,per_K,1,1,1,no,X-X-B,O-X-B,X-X-B,R,stimuli/blue-R.png,mB-L,m0,stimuli/m0_w0_X-X-B.png,stimuli/m0_wW-R_X-X-B.png,stimuli/m0_none_X-X-B.png,stimuli/mW-R_none_X-X-B.png,stimuli/mB-L_none_X-X-B.png,stimuli/mB-L_none_O-X-B.png,stimuli/mB-L_none_X-X-B.png,stimuli/mW-L_none_X-X-B.png,stimuli/m0_none_X-X-B.png,stimuli/m0_wW-L_X-X-B.png,0,25,25,1,,,,,,,,,259.7867808167357,266.46210487547796,267.2022153341677,267.2022153341677,267.2022153341677,268.0868823187193,268.0868823187193,left,0.12431494484189898,260.8506157164229,S3,K-M,2023-01-26_09h30.35.157,knowing_that_K_ONLY,2022.2.5,59.919420071189926,
Does Anna know that the book is here?,Does Anna think that the book is here?,Is the book here?,early,23,no_5,no_K,0,0,0,no,X-O-X,X-O-O,X-O-X,R,stimuli/blue-R.png,mB-R,m0,stimuli/m0_w0_X-O-X.png,stimuli/m0_wW-R_X-O-X.png,stimuli/m0_none_X-O-X.png,stimuli/mW-R_none_X-O-X.png,stimuli/mB-R_none_X-O-X.png,stimuli/mB-R_none_X-O-O.png,stimuli/mB-R_none_X-O-X.png,stimuli/mW-L_none_X-O-X.png,stimuli/m0_none_X-O-X.png,stimuli/m0_wW-L_X-O-X.png,0,26,26,22,,,,,,,,,268.23685367102735,274.88966733415145,275.6272870816756,275.6272870816756,275.6272870816756,276.5368146614637,276.5368146614637,right,0.37048664735630155,269.3012374638347,S3,K-M,2023-01-26_09h30.35.157,knowing_that_K_ONLY,2022.2.5,59.919420071189926,
Does Anna know that the book is here?,Does Anna think that the book is here?,Is the book here?,early,26,no_8,no_K,0,0,0,hide,X-B-O,O-B-O,X-O-X,R,stimuli/blue-R.png,mB-L,m0,stimuli/m0_w0_X-B-O.png,stimuli/m0_wW-R_X-B-O.png,stimuli/m0_none_X-B-O.png,stimuli/mW-R_none_X-B-O.png,stimuli/mB-L_none_X-B-O.png,stimuli/mB-L_none_O-B-O.png,stimuli/mB-L_none_X-O-X.png,stimuli/mW-L_none_X-O-X.png,stimuli/m0_none_X-O-X.png,stimuli/m0_wW-L_X-O-X.png,0,27,27,25,,,,,,,,,276.93684808909893,283.6112206473481,284.32103034085594,284.32103034085594,284.32103034085594,285.2368196659954,285.2368196659954,right,0.022875247057527304,277.99535959074274,S3,K-M,2023-01-26_09h30.35.157,knowing_that_K_ONLY,2022.2.5,59.919420071189926,
Does Anna know that the book is here?,Does Anna think that the book is here?,Is the book here?,late,5,per_5,per_K,1,1,1,no,X-B-O,O-B-O,X-B-O,M,stimuli/blue-M.png,mB-L,m0,stimuli/m0_w0_X-B-O.png,stimuli/mW-R_w0_X-B-O.png,stimuli/mB-L_w0_X-B-O.png,stimuli/mB-L_w0_O-B-O.png,stimuli/mB-L_w0_X-B-O.png,stimuli/mW-L_w0_X-B-O.png,stimuli/m0_wW-R_X-B-O.png,stimuli/m0_none_X-B-O.png,stimuli/m0_none_X-B-O.png,stimuli/m0_wW-L_X-B-O.png,1,0,28,4,,,,,,,,,285.28693095233757,291.9644531502854,292.6996117006056,292.6996117006056,292.6996117006056,293.5870802538702,293.5870802538702,left,0.00796947639901191,286.3424705390353,S3,K-M,2023-01-26_09h30.35.157,knowing_that_K_ONLY,2022.2.5,59.919420071189926,
Does Anna know that the book is here?,Does Anna think that the book is here?,Is the book here?,late,12,mem_3,mem_K,1,1,1,no,X-O-B,X-O-B,X-O-X,R,stimuli/blue-R.png,mB-M,m0,stimuli/m0_w0_X-O-B.png,stimuli/mW-R_w0_X-O-B.png,stimuli/mB-M_w0_X-O-B.png,stimuli/mB-M_w0_X-O-B.png,stimuli/mB-M_w0_X-O-X.png,stimuli/mW-L_w0_X-O-X.png,stimuli/m0_wW-R_X-O-X.png,stimuli/m0_none_X-O-X.png,stimuli/m0_none_X-O-X.png,stimuli/m0_wW-L_X-O-X.png,1,1,29,11,,,,,,,,,293.6202400116017,300.2952647615457,301.03276196250226,301.03276196250226,301.03276196250226,301.92039220035076,301.92039220035076,right,0.02631008019670844,294.6797803272493,S3,K-M,2023-01-26_09h30.35.157,knowing_that_K_ONLY,2022.2.5,59.919420071189926,
Does Anna know that the book is here?,Does Anna think that the book is here?,Is the book here?,late,15,mem_6,mem_K,1,1,1,no,X-B-O,X-B-X,X-X-X,M,stimuli/blue-M.png,mB-R,m0,stimuli/m0_w0_X-B-O.png,stimuli/mW-R_w0_X-B-O.png,stimuli/mB-R_w0_X-B-O.png,stimuli/mB-R_w0_X-B-X.png,stimuli/mB-R_w0_X-X-X.png,stimuli/mW-L_w0_X-X-X.png,stimuli/m0_wW-R_X-X-X.png,stimuli/m0_none_X-X-X.png,stimuli/m0_none_X-X-X.png,stimuli/m0_wW-L_X-X-X.png,1,2,30,14,,,,,,,,,301.9704576120712,308.6454987229081,309.36084450630005,309.36084450630005,309.36084450630005,310.27020687272307,310.27020687272307,right,0.013161986833438277,303.0348160613794,S3,K-M,2023-01-26_09h30.35.157,knowing_that_K_ONLY,2022.2.5,59.919420071189926,
Does Anna know that the book is here?,Does Anna think that the book is here?,Is the book here?,early,22,no_4,no_K,0,0,0,no,O-X-X,O-O-X,O-X-X,M,stimuli/blue-M.png,mB-M,m0,stimuli/m0_w0_O-X-X.png,stimuli/m0_wW-R_O-X-X.png,stimuli/m0_none_O-X-X.png,stimuli/mW-R_none_O-X-X.png,stimuli/mB-M_none_O-X-X.png,stimuli/mB-M_none_O-O-X.png,stimuli/mB-M_none_O-X-X.png,stimuli/mW-L_none_O-X-X.png,stimuli/m0_none_O-X-X.png,stimuli/m0_wW-L_O-X-X.png,1,3,31,21,,,,,,,,,310.3035312022548,316.9796421896899,317.7149483091198,317.7149483091198,317.7149483091198,318.6038794013439,318.6038794013439,right,0.03901578683871776,311.3671405776404,S3,K-M,2023-01-26_09h30.35.157,knowing_that_K_ONLY,2022.2.5,59.919420071189926,
Does Anna know that the book is here?,Does Anna think that the book is here?,Is the book here?,late,16,mem_7,mem_K,1,1,1,switch,B-X-O,O-X-B,O-X-X,R,stimuli/blue-R.png,mB-M,m0,stimuli/m0_w0_B-X-O.png,stimuli/mW-R_w0_B-X-O.png,stimuli/mB-M_w0_B-X-O.png,stimuli/mB-M_w0_O-X-B.png,stimuli/mB-M_w0_O-X-X.png,stimuli/mW-L_w0_O-X-X.png,stimuli/m0_wW-R_O-X-X.png,stimuli/m0_none_O-X-X.png,stimuli/m0_none_O-X-X.png,stimuli/m0_wW-L_O-X-X.png,1,4,32,15,,,,,,,,,318.6702556988457,325.3463824056089,326.08516506257,326.08516506257,326.08516506257,326.97043836384546,326.97043836384546,right,0.08126420225016773,319.7239513124805,S3,K-M,2023-01-26_09h30.35.157,knowing_that_K_ONLY,2022.2.5,59.919420071189926,
Does Anna know that the book is here?,Does Anna think that the book is here?,Is the book here?,late,6,per_6,per_K,1,1,1,no,X-B-X,O-B-X,X-B-X,M,stimuli/blue-M.png,mB-L,m0,stimuli/m0_w0_X-B-X.png,stimuli/mW-R_w0_X-B-X.png,stimuli/mB-L_w0_X-B-X.png,stimuli/mB-L_w0_O-B-X.png,stimuli/mB-L_w0_X-B-X.png,stimuli/mW-L_w0_X-B-X.png,stimuli/m0_wW-R_X-B-X.png,stimuli/m0_none_X-B-X.png,stimuli/m0_none_X-B-X.png,stimuli/m0_wW-L_X-B-X.png,1,5,33,5,,,,,,,,,327.07024132693186,333.72203002579045,334.48414818255696,334.48414818255696,334.48414818255696,335.3703056157101,335.3703056157101,left,0.048914791783317924,328.1163121049758,S3,K-M,2023-01-26_09h30.35.157,knowing_that_K_ONLY,2022.2.5,59.919420071189926,
Does Anna know that the book is here?,Does Anna think that the book is here?,Is the book here?,early,23,no_5,no_K,0,0,0,no,X-O-X,X-O-O,X-O-X,R,stimuli/blue-R.png,mB-R,m0,stimuli/m0_w0_X-O-X.png,stimuli/m0_wW-R_X-O-X.png,stimuli/m0_none_X-O-X.png,stimuli/mW-R_none_X-O-X.png,stimuli/mB-R_none_X-O-X.png,stimuli/mB-R_none_X-O-O.png,stimuli/mB-R_none_X-O-X.png,stimuli/mW-L_none_X-O-X.png,stimuli/m0_none_X-O-X.png,stimuli/m0_wW-L_X-O-X.png,1,6,34,22,,,,,,,,,335.4369353473885,342.10898754070513,342.85175777354743,342.85175777354743,342.85175777354743,343.736959856702,343.736959856702,right,0.2185683441348374,336.4981739918003,S3,K-M,2023-01-26_09h30.35.157,knowing_that_K_ONLY,2022.2.5,59.919420071189926,
Does Anna know that the book is here?,Does Anna think that the book is here?,Is the book here?,late,14,mem_5,mem_K,1,1,1,no,O-B-X,O-B-X,O-X-X,M,stimuli/blue-M.png,mB-L,m0,stimuli/m0_w0_O-B-X.png,stimuli/mW-R_w0_O-B-X.png,stimuli/mB-L_w0_O-B-X.png,stimuli/mB-L_w0_O-B-X.png,stimuli/mB-L_w0_O-X-X.png,stimuli/mW-L_w0_O-X-X.png,stimuli/m0_wW-R_O-X-X.png,stimuli/m0_none_O-X-X.png,stimuli/m0_none_O-X-X.png,stimuli/m0_wW-L_O-X-X.png,1,7,35,13,,,,,,,,,343.98693724011537,350.65906321792863,351.39733708195854,351.39733708195854,351.39733708195854,352.28705125337,352.28705125337,right,0.22041841270402074,345.0491806381615,S3,K-M,2023-01-26_09h30.35.157,knowing_that_K_ONLY,2022.2.5,59.919420071189926,
Does Anna know that the book is here?,Does Anna think that the book is here?,Is the book here?,late,17,mem_8,mem_K,1,1,1,switch,O-X-B,B-X-O,X-X-O,L,stimuli/blue-L.png,mB-M,m0,stimuli/m0_w0_O-X-B.png,stimuli/mW-R_w0_O-X-B.png,stimuli/mB-M_w0_O-X-B.png,stimuli/mB-M_w0_B-X-O.png,stimuli/mB-M_w0_X-X-O.png,stimuli/mW-L_w0_X-X-O.png,stimuli/m0_wW-R_X-X-O.png,stimuli/m0_none_X-X-O.png,stimuli/m0_none_X-X-O.png,stimuli/m0_wW-L_X-X-O.png,1,8,36,16,,,,,,,,,352.5368146614637,359.2101478193654,359.94933885801584,359.94933885801584,359.94933885801584,360.83700149680953,360.83700149680953,right,0.11111808952409774,353.5949370296439,S3,K-M,2023-01-26_09h30.35.157,knowing_that_K_ONLY,2022.2.5,59.919420071189926,
Does Anna know that the book is here?,Does Anna think that the book is here?,Is the book here?,early,28,no_10,no_K,0,0,0,hide,O-B-O,O-B-O,X-O-X,L,stimuli/blue-L.png,mB-M,m0,stimuli/m0_w0_O-B-O.png,stimuli/m0_wW-R_O-B-O.png,stimuli/m0_none_O-B-O.png,stimuli/mW-R_none_O-B-O.png,stimuli/mB-M_none_O-B-O.png,stimuli/mB-M_none_O-B-O.png,stimuli/mB-M_none_X-O-X.png,stimuli/mW-L_none_X-O-X.png,stimuli/m0_none_X-O-X.png,stimuli/m0_wW-L_X-O-X.png,1,9,37,27,,,,,,,,,360.9703251206083,367.64456262101885,368.38268891582265,368.38268891582265,368.38268891582265,369.27035412110854,369.27035412110854,right,1.8136009729932994,362.02590127883013,S3,K-M,2023-01-26_09h30.35.157,knowing_that_K_ONLY,2022.2.5,59.919420071189926,
Does Anna know that the book is here?,Does Anna think that the book is here?,Is the book here?,early,2,per_2,per_K,1,1,1,no,X-X-B,O-X-B,X-X-B,R,stimuli/blue-R.png,mB-L,m0,stimuli/m0_w0_X-X-B.png,stimuli/m0_wW-R_X-X-B.png,stimuli/m0_none_X-X-B.png,stimuli/mW-R_none_X-X-B.png,stimuli/mB-L_none_X-X-B.png,stimuli/mB-L_none_O-X-B.png,stimuli/mB-L_none_X-X-B.png,stimuli/mW-L_none_X-X-B.png,stimuli/m0_none_X-X-B.png,stimuli/m0_wW-L_X-X-B.png,1,10,38,1,,,,,,,,,371.103711621603,377.7769122880418,378.5167369117262,378.5167369117262,378.5167369117262,379.4038686223794,379.4038686223794,left,0.11913173773791641,372.16055719554424,S3,K-M,2023-01-26_09h30.35.157,knowing_that_K_ONLY,2022.2.5,59.919420071189926,
Does Anna know that the book is here?,Does Anna think that the book is here?,Is the book here?,early,3,per_3,per_K,1,1,1,no,O-B-X,O-B-O,O-B-X,M,stimuli/blue-M.png,mB-R,m0,stimuli/m0_w0_O-B-X.png,stimuli/m0_wW-R_O-B-X.png,stimuli/m0_none_O-B-X.png,stimuli/mW-R_none_O-B-X.png,stimuli/mB-R_none_O-B-X.png,stimuli/mB-R_none_O-B-O.png,stimuli/mB-R_none_O-B-X.png,stimuli/mW-L_none_O-B-X.png,stimuli/m0_none_O-B-X.png,stimuli/m0_wW-L_O-B-X.png,1,11,39,2,,,,,,,,,379.5536802150309,386.2053591994336,386.9454911518842,386.9454911518842,386.9454911518842,387.85384844383225,387.85384844383225,left,0.11713698727544397,380.611511936062,S3,K-M,2023-01-26_09h30.35.157,knowing_that_K_ONLY,2022.2.5,59.919420071189926,
Does Anna know that the book is here?,Does Anna think that the book is here?,Is the book here?,early,27,no_9,no_K,0,0,0,hide,X-X-B,O-O-B,X-X-O,L,stimuli/blue-L.png,mB-M,m0,stimuli/m0_w0_X-X-B.png,stimuli/m0_wW-R_X-X-B.png,stimuli/m0_none_X-X-B.png,stimuli/mW-R_none_X-X-B.png,stimuli/mB-M_none_X-X-B.png,stimuli/mB-M_none_O-O-B.png,stimuli/mB-M_none_X-X-O.png,stimuli/mW-L_none_X-X-O.png,stimuli/m0_none_X-X-O.png,stimuli/m0_wW-L_X-X-O.png,1,12,40,26,,,,,,,,,387.987226924859,394.6611400938127,395.40037925273646,395.40037925273646,395.40037925273646,396.287244055653,396.287244055653,right,0.34879012778401375,389.0502761788666,S3,K-M,2023-01-26_09h30.35.157,knowing_that_K_ONLY,2022.2.5,59.919420071189926,
Does Anna know that the book is here?,Does Anna think that the book is here?,Is the book here?,early,25,no_7,no_K,0,0,0,hide,B-X-X,B-O-O,O-X-X,M,stimuli/blue-M.png,mB-L,m0,stimuli/m0_w0_B-X-X.png,stimuli/m0_wW-R_B-X-X.png,stimuli/m0_none_B-X-X.png,stimuli/mW-R_none_B-X-X.png,stimuli/mB-L_none_B-X-X.png,stimuli/mB-L_none_B-O-O.png,stimuli/mB-L_none_O-X-X.png,stimuli/mW-L_none_O-X-X.png,stimuli/m0_none_O-X-X.png,stimuli/m0_wW-L_O-X-X.png,1,13,41,24,,,,,,,,,396.6538209831342,403.3294392178068,404.0451888917014,404.0451888917014,404.0451888917014,404.95390869060066,404.95390869060066,right,0.3460504738613963,397.7136371890083,S3,K-M,2023-01-26_09h30.35.157,knowing_that_K_ONLY,2022.2.5,59.919420071189926,
Does Anna know that the book is here?,Does Anna think that the book is here?,Is the book here?,early,19,no_1,no_K,0,0,0,no,X-X-X,O-X-X,X-X-X,L,stimuli/blue-L.png,mB-L,m0,stimuli/m0_w0_X-X-X.png,stimuli/m0_wW-R_X-X-X.png,stimuli/m0_none_X-X-X.png,stimuli/mW-R_none_X-X-X.png,stimuli/mB-L_none_X-X-X.png,stimuli/mB-L_none_O-X-X.png,stimuli/mB-L_none_X-X-X.png,stimuli/mW-L_none_X-X-X.png,stimuli/m0_none_X-X-X.png,stimuli/m0_wW-L_X-X-X.png,1,14,42,18,,,,,,,,,405.3204099086579,411.99548694945406,412.73302264674567,412.73302264674567,412.73302264674567,413.62043345556594,413.62043345556594,right,0.24829872243572026,406.37786179955583,S3,K-M,2023-01-26_09h30.35.157,knowing_that_K_ONLY,2022.2.5,59.919420071189926,
Does Anna know that the book is here?,Does Anna think that the book is here?,Is the book here?,early,7,per_7,per_K,1,1,1,switch,B-X-O,O-X-B,X-X-B,R,stimuli/blue-R.png,mB-R,m0,stimuli/m0_w0_B-X-O.png,stimuli/m0_wW-R_B-X-O.png,stimuli/m0_none_B-X-O.png,stimuli/mW-R_none_B-X-O.png,stimuli/mB-R_none_B-X-O.png,stimuli/mB-R_none_O-X-B.png,stimuli/mB-R_none_X-X-B.png,stimuli/mW-L_none_X-X-B.png,stimuli/m0_none_X-X-B.png,stimuli/m0_wW-L_X-X-B.png,1,15,43,6,,,,,,,,,413.88713106897194,420.5386826947797,421.27869787521195,421.27869787521195,421.27869787521195,422.1871113075176,422.1871113075176,left,0.06471046875230968,414.9430937942816,S3,K-M,2023-01-26_09h30.35.157,knowing_that_K_ONLY,2022.2.5,59.919420071189926,
Does Anna know that the book is here?,Does Anna think that the book is here?,Is the book here?,early,24,no_6,no_K,0,0,0,no,X-X-X,X-X-O,X-X-X,R,stimuli/blue-R.png,mB-R,m0,stimuli/m0_w0_X-X-X.png,stimuli/m0_wW-R_X-X-X.png,stimuli/m0_none_X-X-X.png,stimuli/mW-R_none_X-X-X.png,stimuli/mB-R_none_X-X-X.png,stimuli/mB-R_none_X-X-O.png,stimuli/mB-R_none_X-X-X.png,stimuli/mW-L_none_X-X-X.png,stimuli/m0_none_X-X-X.png,stimuli/m0_wW-L_X-X-X.png,1,16,44,23,,,,,,,,,422.2929511334514,428.976302314084,429.71518506133,429.71518506133,429.71518506133,430.6038915917743,430.6038915917743,right,0.0552769482601434,423.3624706545379,S3,K-M,2023-01-26_09h30.35.157,knowing_that_K_ONLY,2022.2.5,59.919420071189926,
Does Anna know that the book is here?,Does Anna think that the book is here?,Is the book here?,early,20,no_2,no_K,0,0,0,no,X-O-X,O-O-X,X-O-X,L,stimuli/blue-L.png,mB-L,m0,stimuli/m0_w0_X-O-X.png,stimuli/m0_wW-R_X-O-X.png,stimuli/m0_none_X-O-X.png,stimuli/mW-R_none_X-O-X.png,stimuli/mB-L_none_X-O-X.png,stimuli/mB-L_none_O-O-X.png,stimuli/mB-L_none_X-O-X.png,stimuli/mW-L_none_X-O-X.png,stimuli/m0_none_X-O-X.png,stimuli/m0_wW-L_X-O-X.png,1,17,45,19,,,,,,,,,430.6872742752312,437.3392593053868,438.10060881916434,438.10060881916434,438.10060881916434,438.9870986037422,438.9870986037422,right,0.1040966835571453,431.7513889147667,S3,K-M,2023-01-26_09h30.35.157,knowing_that_K_ONLY,2022.2.5,59.919420071189926,
Does Anna know that the book is here?,Does Anna think that the book is here?,Is the book here?,late,10,mem_1,mem_K,1,1,1,no,O-X-B,X-X-B,X-X-X,R,stimuli/blue-R.png,mB-M,m0,stimuli/m0_w0_O-X-B.png,stimuli/mW-R_w0_O-X-B.png,stimuli/mB-M_w0_O-X-B.png,stimuli/mB-M_w0_X-X-B.png,stimuli/mB-M_w0_X-X-X.png,stimuli/mW-L_w0_X-X-X.png,stimuli/m0_wW-R_X-X-X.png,stimuli/m0_none_X-X-X.png,stimuli/m0_none_X-X-X.png,stimuli/m0_wW-L_X-X-X.png,1,18,46,9,,,,,,,,,439.1204690646846,445.79337683843914,446.5330782738747,446.5330782738747,446.5330782738747,447.42045507766306,447.42045507766306,right,0.09521654760465026,440.18277020717505,S3,K-M,2023-01-26_09h30.35.157,knowing_that_K_ONLY,2022.2.5,59.919420071189926,
Does Anna know that the book is here?,Does Anna think that the book is here?,Is the book here?,late,4,per_4,per_K,1,1,1,no,O-X-B,O-O-B,O-X-B,R,stimuli/blue-R.png,mB-M,m0,stimuli/m0_w0_O-X-B.png,stimuli/mW-R_w0_O-X-B.png,stimuli/mB-M_w0_O-X-B.png,stimuli/mB-M_w0_O-O-B.png,stimuli/mB-M_w0_O-X-B.png,stimuli/mW-L_w0_O-X-B.png,stimuli/m0_wW-R_O-X-B.png,stimuli/m0_none_O-X-B.png,stimuli/m0_none_O-X-B.png,stimuli/m0_wW-L_O-X-B.png,1,19,47,3,,,,,,,,,447.5371473337291,454.18911247397773,454.92778252926655,454.92778252926655,454.92778252926655,455.8372299083276,455.8372299083276,left,0.2865871508838609,448.5839678273769,S3,K-M,2023-01-26_09h30.35.157,knowing_that_K_ONLY,2022.2.5,59.919420071189926,
Does Anna know that the book is here?,Does Anna think that the book is here?,Is the book here?,early,9,per_9,per_K,1,1,1,switch,X-O-B,X-B-O,X-B-X,M,stimuli/blue-M.png,mB-R,m0,stimuli/m0_w0_X-O-B.png,stimuli/m0_wW-R_X-O-B.png,stimuli/m0_none_X-O-B.png,stimuli/mW-R_none_X-O-B.png,stimuli/mB-R_none_X-O-B.png,stimuli/mB-R_none_X-B-O.png,stimuli/mB-R_none_X-B-X.png,stimuli/mW-L_none_X-B-X.png,stimuli/m0_none_X-B-X.png,stimuli/m0_wW-L_X-B-X.png,1,20,48,8,,,,,,,,,456.1539425672963,462.8066962403245,463.56574912858196,463.56574912858196,463.56574912858196,464.45388270553667,464.45388270553667,left,0.06132054794579744,457.20885979710147,S3,K-M,2023-01-26_09h30.35.157,knowing_that_K_ONLY,2022.2.5,59.919420071189926,
Does Anna know that the book is here?,Does Anna think that the book is here?,Is the book here?,early,26,no_8,no_K,0,0,0,hide,X-B-O,O-B-O,X-O-X,R,stimuli/blue-R.png,mB-L,m0,stimuli/m0_w0_X-B-O.png,stimuli/m0_wW-R_X-B-O.png,stimuli/m0_none_X-B-O.png,stimuli/mW-R_none_X-B-O.png,stimuli/mB-L_none_X-B-O.png,stimuli/mB-L_none_O-B-O.png,stimuli/mB-L_none_X-O-X.png,stimuli/mW-L_none_X-O-X.png,stimuli/m0_none_X-O-X.png,stimuli/m0_wW-L_X-O-X.png,1,21,49,25,,,,,,,,,464.5371345016174,471.2111349288607,471.95134868612513,471.95134868612513,471.95134868612513,472.8373486052733,472.8373486052733,right,0.3908601769944653,465.597373845987,S3,K-M,2023-01-26_09h30.35.157,knowing_that_K_ONLY,2022.2.5,59.919420071189926,
Does Anna know that the book is here?,Does Anna think that the book is here?,Is the book here?,early,1,per_1,per_K,1,1,1,no,B-X-X,B-O-X,B-X-X,L,stimuli/blue-L.png,mB-M,m0,stimuli/m0_w0_B-X-X.png,stimuli/m0_wW-R_B-X-X.png,stimuli/m0_none_B-X-X.png,stimuli/mW-R_none_B-X-X.png,stimuli/mB-M_none_B-X-X.png,stimuli/mB-M_none_B-O-X.png,stimuli/mB-M_none_B-X-X.png,stimuli/mW-L_none_B-X-X.png,stimuli/m0_none_B-X-X.png,stimuli/m0_wW-L_B-X-X.png,1,22,50,0,,,,,,,,,473.2538205982419,479.928508505458,480.66871263855137,480.66871263855137,480.66871263855137,481.5538730173139,481.5538730173139,left,0.2263779619242996,474.3173927605385,S3,K-M,2023-01-26_09h30.35.157,knowing_that_K_ONLY,2022.2.5,59.919420071189926,
Does Anna know that the book is here?,Does Anna think that the book is here?,Is the book here?,late,18,mem_9,mem_K,1,1,1,switch,X-O-B,X-B-O,X-X-O,M,stimuli/blue-M.png,mB-L,m0,stimuli/m0_w0_X-O-B.png,stimuli/mW-R_w0_X-O-B.png,stimuli/mB-L_w0_X-O-B.png,stimuli/mB-L_w0_X-B-O.png,stimuli/mB-L_w0_X-X-O.png,stimuli/mW-L_w0_X-X-O.png,stimuli/m0_wW-R_X-X-O.png,stimuli/m0_none_X-X-O.png,stimuli/m0_none_X-X-O.png,stimuli/m0_wW-L_X-X-O.png,1,23,51,17,,,,,,,,,481.8040338997962,488.4803059301339,489.19566711212974,489.19566711212974,489.19566711212974,490.1030947181862,490.1030947181862,right,0.19739184563513845,482.8692367016338,S3,K-M,2023-01-26_09h30.35.157,knowing_that_K_ONLY,2022.2.5,59.919420071189926,
Does Anna know that the book is here?,Does Anna think that the book is here?,Is the book here?,late,13,mem_4,mem_K,1,1,1,no,B-X-O,B-X-O,X-X-O,L,stimuli/blue-L.png,mB-M,m0,stimuli/m0_w0_B-X-O.png,stimuli/mW-R_w0_B-X-O.png,stimuli/mB-M_w0_B-X-O.png,stimuli/mB-M_w0_B-X-O.png,stimuli/mB-M_w0_X-X-O.png,stimuli/mW-L_w0_X-X-O.png,stimuli/m0_wW-R_X-X-O.png,stimuli/m0_none_X-X-O.png,stimuli/m0_none_X-X-O.png,stimuli/m0_wW-L_X-X-O.png,1,24,52,12,,,,,,,,,490.3205241144169,496.9720718906028,497.7348165747244,497.7348165747244,497.7348165747244,498.6205688342452,498.6205688342452,right,0.46342251054011285,491.3890834734775,S3,K-M,2023-01-26_09h30.35.157,knowing_that_K_ONLY,2022.2.5,59.919420071189926,
Does Anna know that the book is here?,Does Anna think that the book is here?,Is the book here?,early,8,per_8,per_K,1,1,1,switch,O-X-B,B-X-O,B-X-X,L,stimuli/blue-L.png,mB-L,m0,stimuli/m0_w0_O-X-B.png,stimuli/m0_wW-R_O-X-B.png,stimuli/m0_none_O-X-B.png,stimuli/mW-R_none_O-X-B.png,stimuli/mB-L_none_O-X-B.png,stimuli/mB-L_none_B-X-O.png,stimuli/mB-L_none_B-X-X.png,stimuli/mW-L_none_B-X-X.png,stimuli/m0_none_B-X-X.png,stimuli/m0_wW-L_B-X-X.png,1,25,53,7,,,,,,,,,499.10382326086983,505.7780453627929,506.5184929850511,506.5184929850511,506.5184929850511,507.4033530926099,507.4033530926099,left,0.20825357909779996,500.15972278802656,S3,K-M,2023-01-26_09h30.35.157,knowing_that_K_ONLY,2022.2.5,59.919420071189926,
Does Anna know that the book is here?,Does Anna think that the book is here?,Is the book here?,late,11,mem_2,mem_K,1,1,1,no,O-B-O,O-B-X,O-X-X,M,stimuli/blue-M.png,mB-L,m0,stimuli/m0_w0_O-B-O.png,stimuli/mW-R_w0_O-B-O.png,stimuli/mB-L_w0_O-B-O.png,stimuli/mB-L_w0_O-B-X.png,stimuli/mB-L_w0_O-X-X.png,stimuli/mW-L_w0_O-X-X.png,stimuli/m0_wW-R_O-X-X.png,stimuli/m0_none_O-X-X.png,stimuli/m0_none_O-X-X.png,stimuli/m0_wW-L_O-X-X.png,1,26,54,10,,,,,,,,,507.63722907414194,514.3102189734345,515.0515083816135,515.0515083816135,515.0515083816135,515.9373132528272,515.9373132528272,right,0.578547966782935,508.6825972945662,S3,K-M,2023-01-26_09h30.35.157,knowing_that_K_ONLY,2022.2.5,59.919420071189926,
Does Anna know that the book is here?,Does Anna think that the book is here?,Is the book here?,early,21,no_3,no_K,0,0,0,no,X-X-O,X-O-O,X-X-O,M,stimuli/blue-M.png,mB-M,m0,stimuli/m0_w0_X-X-O.png,stimuli/m0_wW-R_X-X-O.png,stimuli/m0_none_X-X-O.png,stimuli/mW-R_none_X-X-O.png,stimuli/mB-M_none_X-X-O.png,stimuli/mB-M_none_X-O-O.png,stimuli/mB-M_none_X-X-O.png,stimuli/mW-L_none_X-X-O.png,stimuli/m0_none_X-X-O.png,stimuli/m0_wW-L_X-X-O.png,1,27,55,20,,,,,,,,,516.5372708427021,523.209527708008,523.9504138673656,523.9504138673656,523.9504138673656,524.8372250963002,524.8372250963002,right,0.25431312911678106,517.5956325295847,S3,K-M,2023-01-26_09h30.35.157,knowing_that_K_ONLY,2022.2.5,59.919420071189926,
Does Anna know that the book is here?,Does Anna think that the book is here?,Is the book here?,late,10,mem_1,mem_K,1,1,1,no,O-X-B,X-X-B,X-X-X,R,stimuli/blue-R.png,mB-M,m0,stimuli/m0_w0_O-X-B.png,stimuli/mW-R_w0_O-X-B.png,stimuli/mB-M_w0_O-X-B.png,stimuli/mB-M_w0_X-X-B.png,stimuli/mB-M_w0_X-X-X.png,stimuli/mW-L_w0_X-X-X.png,stimuli/m0_wW-R_X-X-X.png,stimuli/m0_none_X-X-X.png,stimuli/m0_none_X-X-X.png,stimuli/m0_wW-L_X-X-X.png,2,0,56,9,,,,,,,,,525.1207783183781,531.7949519790709,532.5327911556233,532.5327911556233,532.5327911556233,533.4206870179623,533.4206870179623,right,0.4550226160790771,526.1861222732114,S3,K-M,2023-01-26_09h30.35.157,knowing_that_K_ONLY,2022.2.5,59.919420071189926,
Does Anna know that the book is here?,Does Anna think that the book is here?,Is the book here?,early,28,no_10,no_K,0,0,0,hide,O-B-O,O-B-O,X-O-X,L,stimuli/blue-L.png,mB-M,m0,stimuli/m0_w0_O-B-O.png,stimuli/m0_wW-R_O-B-O.png,stimuli/m0_none_O-B-O.png,stimuli/mW-R_none_O-B-O.png,stimuli/mB-M_none_O-B-O.png,stimuli/mB-M_none_O-B-O.png,stimuli/mB-M_none_X-O-X.png,stimuli/mW-L_none_X-O-X.png,stimuli/m0_none_X-O-X.png,stimuli/m0_wW-L_X-O-X.png,2,1,57,27,,,,,,,,,533.9040537254186,540.5756176572759,541.3149841747945,541.3149841747945,541.3149841747945,542.2038276880048,542.2038276880048,right,0.35170429840218276,534.960471348837,S3,K-M,2023-01-26_09h30.35.157,knowing_that_K_ONLY,2022.2.5,59.919420071189926,
Does Anna know that the book is here?,Does Anna think that the book is here?,Is the book here?,early,8,per_8,per_K,1,1,1,switch,O-X-B,B-X-O,B-X-X,L,stimuli/blue-L.png,mB-L,m0,stimuli/m0_w0_O-X-B.png,stimuli/m0_wW-R_O-X-B.png,stimuli/m0_none_O-X-B.png,stimuli/mW-R_none_O-X-B.png,stimuli/mB-L_none_O-X-B.png,stimuli/mB-L_none_B-X-O.png,stimuli/mB-L_none_B-X-X.png,stimuli/mW-L_none_B-X-X.png,stimuli/m0_none_B-X-X.png,stimuli/m0_wW-L_B-X-X.png,2,2,58,7,,,,,,,,,542.5871312614763,549.2611807716312,550.0007522819797,550.0007522819797,550.0007522819797,550.8875506788027,550.8875506788027,left,0.47649714013095945,543.6397043868201,S3,K-M,2023-01-26_09h30.35.157,knowing_that_K_ONLY,2022.2.5,59.919420071189926,
Does Anna know that the book is here?,Does Anna think that the book is here?,Is the book here?,late,6,per_6,per_K,1,1,1,no,X-B-X,O-B-X,X-B-X,M,stimuli/blue-M.png,mB-L,m0,stimuli/m0_w0_X-B-X.png,stimuli/mW-R_w0_X-B-X.png,stimuli/mB-L_w0_X-B-X.png,stimuli/mB-L_w0_O-B-X.png,stimuli/mB-L_w0_X-B-X.png,stimuli/mW-L_w0_X-B-X.png,stimuli/m0_wW-R_X-B-X.png,stimuli/m0_none_X-B-X.png,stimuli/m0_none_X-B-X.png,stimuli/m0_wW-L_X-B-X.png,2,3,59,5,,,,,,,,,551.3872991695534,558.060244156397,558.800004619523,558.800004619523,558.800004619523,559.6876233085059,559.6876233085059,left,0.1875698333606124,552.4466357755009,S3,K-M,2023-01-26_09h30.35.157,knowing_that_K_ONLY,2022.2.5,59.919420071189926,
Does Anna know that the book is here?,Does Anna think that the book is here?,Is the book here?,late,11,mem_2,mem_K,1,1,1,no,O-B-O,O-B-X,O-X-X,M,stimuli/blue-M.png,mB-L,m0,stimuli/m0_w0_O-B-O.png,stimuli/mW-R_w0_O-B-O.png,stimuli/mB-L_w0_O-B-O.png,stimuli/mB-L_w0_O-B-X.png,stimuli/mB-L_w0_O-X-X.png,stimuli/mW-L_w0_O-X-X.png,stimuli/m0_wW-R_O-X-X.png,stimuli/m0_none_O-X-X.png,stimuli/m0_none_O-X-X.png,stimuli/m0_wW-L_O-X-X.png,2,4,60,10,,,,,,,,,559.9041785176378,566.5757937778253,567.3141064589145,567.3141064589145,567.3141064589145,568.204170305049,568.204170305049,right,0.1353274554712698,560.9666269085137,S3,K-M,2023-01-26_09h30.35.157,knowing_that_K_ONLY,2022.2.5,59.919420071189926,
Does Anna know that the book is here?,Does Anna think that the book is here?,Is the book here?,early,3,per_3,per_K,1,1,1,no,O-B-X,O-B-O,O-B-X,M,stimuli/blue-M.png,mB-R,m0,stimuli/m0_w0_O-B-X.png,stimuli/m0_wW-R_O-B-X.png,stimuli/m0_none_O-B-X.png,stimuli/mW-R_none_O-B-X.png,stimuli/mB-R_none_O-B-X.png,stimuli/mB-R_none_O-B-O.png,stimuli/mB-R_none_O-B-X.png,stimuli/mW-L_none_O-B-X.png,stimuli/m0_none_O-B-X.png,stimuli/m0_wW-L_O-B-X.png,2,5,61,2,,,,,,,,,568.3706427792786,575.0438030246878,575.7854844535468,575.7854844535468,575.7854844535468,576.6706977648428,576.6706977648428,left,0.0616182527737692,569.4344738292275,S3,K-M,2023-01-26_09h30.35.157,knowing_that_K_ONLY,2022.2.5,59.919420071189926,
Does Anna know that the book is here?,Does Anna think that the book is here?,Is the book here?,late,4,per_4,per_K,1,1,1,no,O-X-B,O-O-B,O-X-B,R,stimuli/blue-R.png,mB-M,m0,stimuli/m0_w0_O-X-B.png,stimuli/mW-R_w0_O-X-B.png,stimuli/mB-M_w0_O-X-B.png,stimuli/mB-M_w0_O-O-B.png,stimuli/mB-M_w0_O-X-B.png,stimuli/mW-L_w0_O-X-B.png,stimuli/m0_wW-R_O-X-B.png,stimuli/m0_none_O-X-B.png,stimuli/m0_none_O-X-B.png,stimuli/m0_wW-L_O-X-B.png,2,6,62,3,,,,,,,,,576.7540316863451,583.430887898081,584.14489785966,584.14489785966,584.14489785966,585.0540109624853,585.0540109624853,left,0.021514081745408475,577.8082867795601,S3,K-M,2023-01-26_09h30.35.157,knowing_that_K_ONLY,2022.2.5,59.919420071189926,
Does Anna know that the book is here?,Does Anna think that the book is here?,Is the book here?,early,24,no_6,no_K,0,0,0,no,X-X-X,X-X-O,X-X-X,R,stimuli/blue-R.png,mB-R,m0,stimuli/m0_w0_X-X-X.png,stimuli/m0_wW-R_X-X-X.png,stimuli/m0_none_X-X-X.png,stimuli/mW-R_none_X-X-X.png,stimuli/mB-R_none_X-X-X.png,stimuli/mB-R_none_X-X-O.png,stimuli/mB-R_none_X-X-X.png,stimuli/mW-L_none_X-X-X.png,stimuli/m0_none_X-X-X.png,stimuli/m0_wW-L_X-X-X.png,2,7,63,23,,,,,,,,,585.104015421588,591.756228221464,592.4960329553578,592.4960329553578,592.4960329553578,593.4041156403255,593.4041156403255,right,0.20842713327147067,586.1583651516121,S3,K-M,2023-01-26_09h30.35.157,knowing_that_K_ONLY,2022.2.5,59.919420071189926,
Does Anna know that the book is here?,Does Anna think that the book is here?,Is the book here?,late,18,mem_9,mem_K,1,1,1,switch,X-O-B,X-B-O,X-X-O,M,stimuli/blue-M.png,mB-L,m0,stimuli/m0_w0_X-O-B.png,stimuli/mW-R_w0_X-O-B.png,stimuli/mB-L_w0_X-O-B.png,stimuli/mB-L_w0_X-B-O.png,stimuli/mB-L_w0_X-X-O.png,stimuli/mW-L_w0_X-X-O.png,stimuli/m0_wW-R_X-X-O.png,stimuli/m0_none_X-X-O.png,stimuli/m0_none_X-X-O.png,stimuli/m0_wW-L_X-X-O.png,2,8,64,17,,,,,,,,,593.6374693553662,600.3120892524021,601.0529263289645,601.0529263289645,601.0529263289645,601.9374014735222,601.9374014735222,right,0.33870601980015635,,S3,K-M,2023-01-26_09h30.35.157,knowing_that_K_ONLY,2022.2.5,59.919420071189926,
Does Anna know that the book is here?,Does Anna think that the book is here?,Is the book here?,early,23,no_5,no_K,0,0,0,no,X-O-X,X-O-O,X-O-X,R,stimuli/blue-R.png,mB-R,m0,stimuli/m0_w0_X-O-X.png,stimuli/m0_wW-R_X-O-X.png,stimuli/m0_none_X-O-X.png,stimuli/mW-R_none_X-O-X.png,stimuli/mB-R_none_X-O-X.png,stimuli/mB-R_none_X-O-O.png,stimuli/mB-R_none_X-O-X.png,stimuli/mW-L_none_X-O-X.png,stimuli/m0_none_X-O-X.png,stimuli/m0_wW-L_X-O-X.png,2,9,65,22,,,,,,,,,602.304194301134,608.9796601545531,609.7156078791013,609.7156078791013,609.7156078791013,610.6043878734345,610.6043878734345,right,0.18352675857022405,603.3668861811748,S3,K-M,2023-01-26_09h30.35.157,knowing_that_K_ONLY,2022.2.5,59.919420071189926,
Does Anna know that the book is here?,Does Anna think that the book is here?,Is the book here?,late,15,mem_6,mem_K,1,1,1,no,X-B-O,X-B-X,X-X-X,M,stimuli/blue-M.png,mB-R,m0,stimuli/m0_w0_X-B-O.png,stimuli/mW-R_w0_X-B-O.png,stimuli/mB-R_w0_X-B-O.png,stimuli/mB-R_w0_X-B-X.png,stimuli/mB-R_w0_X-X-X.png,stimuli/mW-L_w0_X-X-X.png,stimuli/m0_wW-R_X-X-X.png,stimuli/m0_none_X-X-X.png,stimuli/m0_none_X-X-X.png,stimuli/m0_wW-L_X-X-X.png,2,10,66,14,,,,,,,,,610.8041830729926,617.4761765594594,618.2164875197923,618.2164875197923,618.2164875197923,619.1040946597932,619.1040946597932,right,0.1480578639311716,611.8667084565386,S3,K-M,2023-01-26_09h30.35.157,knowing_that_K_ONLY,2022.2.5,59.919420071189926,
Does Anna know that the book is here?,Does Anna think that the book is here?,Is the book here?,late,13,mem_4,mem_K,1,1,1,no,B-X-O,B-X-O,X-X-O,L,stimuli/blue-L.png,mB-M,m0,stimuli/m0_w0_B-X-O.png,stimuli/mW-R_w0_B-X-O.png,stimuli/mB-M_w0_B-X-O.png,stimuli/mB-M_w0_B-X-O.png,stimuli/mB-M_w0_X-X-O.png,stimuli/mW-L_w0_X-X-O.png,stimuli/m0_wW-R_X-X-O.png,stimuli/m0_none_X-X-O.png,stimuli/m0_none_X-X-O.png,stimuli/m0_wW-L_X-X-O.png,2,11,67,12,,,,,,,,,619.2707987534814,625.9457817990333,626.6826005026232,626.6826005026232,626.6826005026232,627.5709490174195,627.5709490174195,right,0.0890917849028483,620.3259498482803,S3,K-M,2023-01-26_09h30.35.157,knowing_that_K_ONLY,2022.2.5,59.919420071189926,
Does Anna know that the book is here?,Does Anna think that the book is here?,Is the book here?,late,17,mem_8,mem_K,1,1,1,switch,O-X-B,B-X-O,X-X-O,L,stimuli/blue-L.png,mB-M,m0,stimuli/m0_w0_O-X-B.png,stimuli/mW-R_w0_O-X-B.png,stimuli/mB-M_w0_O-X-B.png,stimuli/mB-M_w0_B-X-O.png,stimuli/mB-M_w0_X-X-O.png,stimuli/mW-L_w0_X-X-O.png,stimuli/m0_wW-R_X-X-O.png,stimuli/m0_none_X-X-O.png,stimuli/m0_none_X-X-O.png,stimuli/m0_wW-L_X-X-O.png,2,12,68,16,,,,,,,,,627.6874584159814,634.360031271819,635.0794089019764,635.0794089019764,635.0794089019764,635.9874688099371,635.9874688099371,right,0.03190295223612338,628.7430615215562,S3,K-M,2023-01-26_09h30.35.157,knowing_that_K_ONLY,2022.2.5,59.919420071189926,
Does Anna know that the book is here?,Does Anna think that the book is here?,Is the book here?,early,27,no_9,no_K,0,0,0,hide,X-X-B,O-O-B,X-X-O,L,stimuli/blue-L.png,mB-M,m0,stimuli/m0_w0_X-X-B.png,stimuli/m0_wW-R_X-X-B.png,stimuli/m0_none_X-X-B.png,stimuli/mW-R_none_X-X-B.png,stimuli/mB-M_none_X-X-B.png,stimuli/mB-M_none_O-O-B.png,stimuli/mB-M_none_X-X-O.png,stimuli/mW-L_none_X-X-O.png,stimuli/m0_none_X-X-O.png,stimuli/m0_wW-L_X-X-O.png,2,13,69,26,,,,,,,,,636.0376394448103,642.7121496273903,643.453022633912,643.453022633912,643.453022633912,644.3376472723903,644.3376472723903,right,0.2675850522937253,637.0979137567338,S3,K-M,2023-01-26_09h30.35.157,knowing_that_K_ONLY,2022.2.5,59.919420071189926,
Does Anna know that the book is here?,Does Anna think that the book is here?,Is the book here?,late,5,per_5,per_K,1,1,1,no,X-B-O,O-B-O,X-B-O,M,stimuli/blue-M.png,mB-L,m0,stimuli/m0_w0_X-B-O.png,stimuli/mW-R_w0_X-B-O.png,stimuli/mB-L_w0_X-B-O.png,stimuli/mB-L_w0_O-B-O.png,stimuli/mB-L_w0_X-B-O.png,stimuli/mW-L_w0_X-B-O.png,stimuli/m0_wW-R_X-B-O.png,stimuli/m0_none_X-B-O.png,stimuli/m0_none_X-B-O.png,stimuli/m0_wW-L_X-B-O.png,2,14,70,4,,,,,,,,,644.6368036899948,651.2953946866328,652.0325970700942,652.0325970700942,652.0325970700942,652.920957133756,652.920957133756,left,0.09914862480945885,,S3,K-M,2023-01-26_09h30.35.157,knowing_that_K_ONLY,2022.2.5,59.919420071189926,
Does Anna know that the book is here?,Does Anna think that the book is here?,Is the book here?,early,26,no_8,no_K,0,0,0,hide,X-B-O,O-B-O,X-O-X,R,stimuli/blue-R.png,mB-L,m0,stimuli/m0_w0_X-B-O.png,stimuli/m0_wW-R_X-B-O.png,stimuli/m0_none_X-B-O.png,stimuli/mW-R_none_X-B-O.png,stimuli/mB-L_none_X-B-O.png,stimuli/mB-L_none_O-B-O.png,stimuli/mB-L_none_X-O-X.png,stimuli/mW-L_none_X-O-X.png,stimuli/m0_none_X-O-X.png,stimuli/m0_wW-L_X-O-X.png,2,15,71,25,,,,,,,,,653.0374751939671,659.6891214564675,660.4263854339952,660.4263854339952,660.4263854339952,661.3374717934057,661.3374717934057,right,0.33111871825531125,654.1006579019595,S3,K-M,2023-01-26_09h30.35.157,knowing_that_K_ONLY,2022.2.5,59.919420071189926,
Does Anna know that the book is here?,Does Anna think that the book is here?,Is the book here?,early,21,no_3,no_K,0,0,0,no,X-X-O,X-O-O,X-X-O,M,stimuli/blue-M.png,mB-M,m0,stimuli/m0_w0_X-X-O.png,stimuli/m0_wW-R_X-X-O.png,stimuli/m0_none_X-X-O.png,stimuli/mW-R_none_X-X-O.png,stimuli/mB-M_none_X-X-O.png,stimuli/mB-M_none_X-O-O.png,stimuli/mB-M_none_X-X-O.png,stimuli/mW-L_none_X-X-O.png,stimuli/m0_none_X-X-O.png,stimuli/m0_wW-L_X-X-O.png,2,16,72,20,,,,,,,,,661.6875091027468,668.3609423511662,669.1001763772219,669.1001763772219,669.1001763772219,669.987507947837,669.987507947837,right,0.12008067162241787,662.7418488878757,S3,K-M,2023-01-26_09h30.35.157,knowing_that_K_ONLY,2022.2.5,59.919420071189926,
Does Anna know that the book is here?,Does Anna think that the book is here?,Is the book here?,early,7,per_7,per_K,1,1,1,switch,B-X-O,O-X-B,X-X-B,R,stimuli/blue-R.png,mB-R,m0,stimuli/m0_w0_B-X-O.png,stimuli/m0_wW-R_B-X-O.png,stimuli/m0_none_B-X-O.png,stimuli/mW-R_none_B-X-O.png,stimuli/mB-R_none_B-X-O.png,stimuli/mB-R_none_O-X-B.png,stimuli/mB-R_none_X-X-B.png,stimuli/mW-L_none_X-X-B.png,stimuli/m0_none_X-X-B.png,stimuli/m0_wW-L_X-X-B.png,2,17,73,6,,,,,,,,,670.1376496463781,676.810412738123,677.5275364094414,677.5275364094414,677.5275364094414,678.4374669172103,678.4374669172103,left,0.27048671152442694,671.1949343991,S3,K-M,2023-01-26_09h30.35.157,knowing_that_K_ONLY,2022.2.5,59.919420071189926,
Does Anna know that the book is here?,Does Anna think that the book is here?,Is the book here?,early,25,no_7,no_K,0,0,0,hide,B-X-X,B-O-O,O-X-X,M,stimuli/blue-M.png,mB-L,m0,stimuli/m0_w0_B-X-X.png,stimuli/m0_wW-R_B-X-X.png,stimuli/m0_none_B-X-X.png,stimuli/mW-R_none_B-X-X.png,stimuli/mB-L_none_B-X-X.png,stimuli/mB-L_none_B-O-O.png,stimuli/mB-L_none_O-X-X.png,stimuli/mW-L_none_O-X-X.png,stimuli/m0_none_O-X-X.png,stimuli/m0_wW-L_O-X-X.png,2,18,74,24,,,,,,,,,678.7374599878676,685.3889304506592,686.153122595977,686.153122595977,686.153122595977,687.0374687778531,687.0374687778531,right,0.44676932820584625,679.7970747296931,S3,K-M,2023-01-26_09h30.35.157,knowing_that_K_ONLY,2022.2.5,59.919420071189926,
Does Anna know that the book is here?,Does Anna think that the book is here?,Is the book here?,early,20,no_2,no_K,0,0,0,no,X-O-X,O-O-X,X-O-X,L,stimuli/blue-L.png,mB-L,m0,stimuli/m0_w0_X-O-X.png,stimuli/m0_wW-R_X-O-X.png,stimuli/m0_none_X-O-X.png,stimuli/mW-R_none_X-O-X.png,stimuli/mB-L_none_X-O-X.png,stimuli/mB-L_none_O-O-X.png,stimuli/mB-L_none_X-O-X.png,stimuli/mW-L_none_X-O-X.png,stimuli/m0_none_X-O-X.png,stimuli/m0_wW-L_X-O-X.png,2,19,75,19,,,,,,,,,687.5042721278733,694.1785423500696,694.9177468623966,694.9177468623966,694.9177468623966,695.804398652399,695.804398652399,right,0.07122308167163283,688.5686116499128,S3,K-M,2023-01-26_09h30.35.157,knowing_that_K_ONLY,2022.2.5,59.919420071189926,
Does Anna know that the book is here?,Does Anna think that the book is here?,Is the book here?,early,19,no_1,no_K,0,0,0,no,X-X-X,O-X-X,X-X-X,L,stimuli/blue-L.png,mB-L,m0,stimuli/m0_w0_X-X-X.png,stimuli/m0_wW-R_X-X-X.png,stimuli/m0_none_X-X-X.png,stimuli/mW-R_none_X-X-X.png,stimuli/mB-L_none_X-X-X.png,stimuli/mB-L_none_O-X-X.png,stimuli/mB-L_none_X-X-X.png,stimuli/mW-L_none_X-X-X.png,stimuli/m0_none_X-X-X.png,stimuli/m0_wW-L_X-X-X.png,2,20,76,18,,,,,,,,,695.9042051442666,702.5557943040039,703.2944149555406,703.2944149555406,703.2944149555406,704.2043069669744,704.2043069669744,right,0.18443366745486856,696.9652683096938,S3,K-M,2023-01-26_09h30.35.157,knowing_that_K_ONLY,2022.2.5,59.919420071189926,
Does Anna know that the book is here?,Does Anna think that the book is here?,Is the book here?,early,2,per_2,per_K,1,1,1,no,X-X-B,O-X-B,X-X-B,R,stimuli/blue-R.png,mB-L,m0,stimuli/m0_w0_X-X-B.png,stimuli/m0_wW-R_X-X-B.png,stimuli/m0_none_X-X-B.png,stimuli/mW-R_none_X-X-B.png,stimuli/mB-L_none_X-X-B.png,stimuli/mB-L_none_O-X-B.png,stimuli/mB-L_none_X-X-B.png,stimuli/mW-L_none_X-X-B.png,stimuli/m0_none_X-X-B.png,stimuli/m0_wW-L_X-X-B.png,2,21,77,1,,,,,,,,,704.4208470984595,711.0952815716155,711.833698834409,711.833698834409,711.833698834409,712.7208642292535,712.7208642292535,left,0.011781252571381629,705.476006534067,S3,K-M,2023-01-26_09h30.35.157,knowing_that_K_ONLY,2022.2.5,59.919420071189926,
Does Anna know that the book is here?,Does Anna think that the book is here?,Is the book here?,early,22,no_4,no_K,0,0,0,no,O-X-X,O-O-X,O-X-X,M,stimuli/blue-M.png,mB-M,m0,stimuli/m0_w0_O-X-X.png,stimuli/m0_wW-R_O-X-X.png,stimuli/m0_none_O-X-X.png,stimuli/mW-R_none_O-X-X.png,stimuli/mB-M_none_O-X-X.png,stimuli/mB-M_none_O-O-X.png,stimuli/mB-M_none_O-X-X.png,stimuli/mW-L_none_O-X-X.png,stimuli/m0_none_O-X-X.png,stimuli/m0_wW-L_O-X-X.png,2,22,78,21,,,,,,,,,712.7543941931799,719.4267055949895,720.1691274362383,720.1691274362383,720.1691274362383,721.0542621508939,721.0542621508939,right,0.14121514512225986,713.8098927171668,S3,K-M,2023-01-26_09h30.35.157,knowing_that_K_ONLY,2022.2.5,59.919420071189926,
Does Anna know that the book is here?,Does Anna think that the book is here?,Is the book here?,late,12,mem_3,mem_K,1,1,1,no,X-O-B,X-O-B,X-O-X,R,stimuli/blue-R.png,mB-M,m0,stimuli/m0_w0_X-O-B.png,stimuli/mW-R_w0_X-O-B.png,stimuli/mB-M_w0_X-O-B.png,stimuli/mB-M_w0_X-O-B.png,stimuli/mB-M_w0_X-O-X.png,stimuli/mW-L_w0_X-O-X.png,stimuli/m0_wW-R_X-O-X.png,stimuli/m0_none_X-O-X.png,stimuli/m0_none_X-O-X.png,stimuli/m0_wW-L_X-O-X.png,2,23,79,11,,,,,,,,,721.2209136328893,727.8941046752734,728.6326852266211,728.6326852266211,728.6326852266211,729.5210266837385,729.5210266837385,right,0.08303535322193056,722.2804430411197,S3,K-M,2023-01-26_09h30.35.157,knowing_that_K_ONLY,2022.2.5,59.919420071189926,
Does Anna know that the book is here?,Does Anna think that the book is here?,Is the book here?,late,16,mem_7,mem_K,1,1,1,switch,B-X-O,O-X-B,O-X-X,R,stimuli/blue-R.png,mB-M,m0,stimuli/m0_w0_B-X-O.png,stimuli/mW-R_w0_B-X-O.png,stimuli/mB-M_w0_B-X-O.png,stimuli/mB-M_w0_O-X-B.png,stimuli/mB-M_w0_O-X-X.png,stimuli/mW-L_w0_O-X-X.png,stimuli/m0_wW-R_O-X-X.png,stimuli/m0_none_O-X-X.png,stimuli/m0_none_O-X-X.png,stimuli/m0_wW-L_O-X-X.png,2,24,80,15,,,,,,,,,729.621057095821,736.2937563478481,737.0339742754586,737.0339742754586,737.0339742754586,737.9211124021094,737.9211124021094,right,0.1636495104758069,730.6839879737236,S3,K-M,2023-01-26_09h30.35.157,knowing_that_K_ONLY,2022.2.5,59.919420071189926,
Does Anna know that the book is here?,Does Anna think that the book is here?,Is the book here?,late,14,mem_5,mem_K,1,1,1,no,O-B-X,O-B-X,O-X-X,M,stimuli/blue-M.png,mB-L,m0,stimuli/m0_w0_O-B-X.png,stimuli/mW-R_w0_O-B-X.png,stimuli/mB-L_w0_O-B-X.png,stimuli/mB-L_w0_O-B-X.png,stimuli/mB-L_w0_O-X-X.png,stimuli/mW-L_w0_O-X-X.png,stimuli/m0_wW-R_O-X-X.png,stimuli/m0_none_O-X-X.png,stimuli/m0_none_O-X-X.png,stimuli/m0_wW-L_O-X-X.png,2,25,81,13,,,,,,,,,738.1044696780154,744.7563889436424,745.4972131880932,745.4972131880932,745.4972131880932,746.4044957914157,746.4044957914157,right,0.16847309784498066,739.168646553182,S3,K-M,2023-01-26_09h30.35.157,knowing_that_K_ONLY,2022.2.5,59.919420071189926,
Does Anna know that the book is here?,Does Anna think that the book is here?,Is the book here?,early,9,per_9,per_K,1,1,1,switch,X-O-B,X-B-O,X-B-X,M,stimuli/blue-M.png,mB-R,m0,stimuli/m0_w0_X-O-B.png,stimuli/m0_wW-R_X-O-B.png,stimuli/m0_none_X-O-B.png,stimuli/mW-R_none_X-O-B.png,stimuli/mB-R_none_X-O-B.png,stimuli/mB-R_none_X-B-O.png,stimuli/mB-R_none_X-B-X.png,stimuli/mW-L_none_X-B-X.png,stimuli/m0_none_X-B-X.png,stimuli/m0_wW-L_X-B-X.png,2,26,82,8,,,,,,,,,746.6042348506162,753.2790353595046,754.0127470901934,754.0127470901934,754.0127470901934,754.9044685231056,754.9044685231056,left,0.028189662378281355,747.6608972463291,S3,K-M,2023-01-26_09h30.35.157,knowing_that_K_ONLY,2022.2.5,59.919420071189926,
Does Anna know that the book is here?,Does Anna think that the book is here?,Is the book here?,early,1,per_1,per_K,1,1,1,no,B-X-X,B-O-X,B-X-X,L,stimuli/blue-L.png,mB-M,m0,stimuli/m0_w0_B-X-X.png,stimuli/m0_wW-R_B-X-X.png,stimuli/m0_none_B-X-X.png,stimuli/mW-R_none_B-X-X.png,stimuli/mB-M_none_B-X-X.png,stimuli/mB-M_none_B-O-X.png,stimuli/mB-M_none_B-X-X.png,stimuli/mW-L_none_B-X-X.png,stimuli/m0_none_B-X-X.png,stimuli/m0_wW-L_B-X-X.png,2,27,83,0,,,,,,,,,754.9544296739623,761.6280842761043,762.3692986165406,762.3692986165406,762.3692986165406,763.254453541711,763.254453541711,left,0.10130249324720353,756.0103128402261,S3,K-M,2023-01-26_09h30.35.157,knowing_that_K_ONLY,2022.2.5,59.919420071189926,
