K_text,B_text,T_text,Anna_exit,trial_num,trial_code,cond,K_hit,B_hit,T_hit,book_move,start_shelf,mid_shelf,end_shelf,rectangle,rectangle_path,Todd_mid,Todd_final,frame_1,frame_2,frame_3,frame_4,frame_5,frame_6,frame_7,frame_8,frame_9,frame_10,trials.thisRepN,trials.thisTrialN,trials.thisN,trials.thisIndex,frames.thisRepN,frames.thisTrialN,frames.thisN,frames.thisIndex,sessionInst.started,startSession.started,startSession.keys,startSession.rt,crossText.started,movingImage.started,staticImage.started,promptText3.started,rectImage.started,respText.started,keyResp.started,keyResp.keys,keyResp.rt,crossText.stopped,respText.stopped,keyResp.stopped,subject,session,date,expName,psychopyVersion,frameRate,
,,,,,,,,,,,,,,,,,,,,,,,,,,,,,,,,,,,,19.734973767888732,19.734973767888732,left,5.6923631123499945,,,,,,,,,,,,,S3,T-M,2023-01-26_09h17.38.243,knowing_that_K_ONLY,2022.2.5,59.98641388861393,
Does Anna know that the book is here?,Does Anna think that the book is here?,Is the book here?,early,9,per_9,per_K,1,1,1,switch,X-O-B,X-B-O,X-B-X,M,stimuli/blue-M.png,mB-R,m0,stimuli/m0_w0_X-O-B.png,stimuli/m0_wW-R_X-O-B.png,stimuli/m0_none_X-O-B.png,stimuli/mW-R_none_X-O-B.png,stimuli/mB-R_none_X-O-B.png,stimuli/mB-R_none_X-B-O.png,stimuli/mB-R_none_X-B-X.png,stimuli/mW-L_none_X-B-X.png,stimuli/m0_none_X-B-X.png,stimuli/m0_wW-L_X-B-X.png,0,0,0,8,,,,,,,,,25.49247172602918,32.12880961073097,32.88535221875645,32.88535221875645,32.88535221875645,33.75686950585805,33.75686950585805,left,0.3914727568626404,,,,S3,T-M,2023-01-26_09h17.38.243,knowing_that_K_ONLY,2022.2.5,59.98641388861393,
Does Anna know that the book is here?,Does Anna think that the book is here?,Is the book here?,early,24,no_6,no_K,0,0,0,no,X-X-X,X-X-O,X-X-X,R,stimuli/blue-R.png,mB-R,m0,stimuli/m0_w0_X-X-X.png,stimuli/m0_wW-R_X-X-X.png,stimuli/m0_none_X-X-X.png,stimuli/mW-R_none_X-X-X.png,stimuli/mB-R_none_X-X-X.png,stimuli/mB-R_none_X-X-O.png,stimuli/mB-R_none_X-X-X.png,stimuli/mW-L_none_X-X-X.png,stimuli/m0_none_X-X-X.png,stimuli/m0_wW-L_X-X-X.png,0,1,1,23,,,,,,,,,34.173316155327484,40.84669165930245,41.58326976094395,41.58326976094395,41.58326976094395,42.473532183794305,42.473532183794305,right,0.21761829475872219,35.23214364761952,,,S3,T-M,2023-01-26_09h17.38.243,knowing_that_K_ONLY,2022.2.5,59.98641388861393,
Does Anna know that the book is here?,Does Anna think that the book is here?,Is the book here?,early,25,no_7,no_K,0,0,0,hide,B-X-X,B-O-O,O-X-X,M,stimuli/blue-M.png,mB-L,m0,stimuli/m0_w0_B-X-X.png,stimuli/m0_wW-R_B-X-X.png,stimuli/m0_none_B-X-X.png,stimuli/mW-R_none_B-X-X.png,stimuli/mB-L_none_B-X-X.png,stimuli/mB-L_none_B-O-O.png,stimuli/mB-L_none_O-X-X.png,stimuli/mW-L_none_O-X-X.png,stimuli/m0_none_O-X-X.png,stimuli/m0_wW-L_O-X-X.png,0,2,2,24,,,,,,,,,42.7238332569832,49.395889941602945,50.13291203393601,50.13291203393601,50.13291203393601,51.02363288379274,51.02363288379274,right,0.37186369963455945,43.77842904254794,,,S3,T-M,2023-01-26_09h17.38.243,knowing_that_K_ONLY,2022.2.5,59.98641388861393,
Does Anna know that the book is here?,Does Anna think that the book is here?,Is the book here?,late,5,per_5,per_K,1,1,1,no,X-B-O,O-B-O,X-B-O,M,stimuli/blue-M.png,mB-L,m0,stimuli/m0_w0_X-B-O.png,stimuli/mW-R_w0_X-B-O.png,stimuli/mB-L_w0_X-B-O.png,stimuli/mB-L_w0_O-B-O.png,stimuli/mB-L_w0_X-B-O.png,stimuli/mW-L_w0_X-B-O.png,stimuli/m0_wW-R_X-B-O.png,stimuli/m0_none_X-B-O.png,stimuli/m0_none_X-B-O.png,stimuli/m0_wW-L_X-B-O.png,0,3,3,4,,,,,,,,,51.423983585089445,58.094277138705365,58.83253496256657,58.83253496256657,58.83253496256657,59.72378224937711,59.72378224937711,left,0.2875461974181235,52.482347517623566,,,S3,T-M,2023-01-26_09h17.38.243,knowing_that_K_ONLY,2022.2.5,59.98641388861393,
Does Anna know that the book is here?,Does Anna think that the book is here?,Is the book here?,late,11,mem_2,mem_K,1,1,1,no,O-B-O,O-B-X,O-X-X,M,stimuli/blue-M.png,mB-L,m0,stimuli/m0_w0_O-B-O.png,stimuli/mW-R_w0_O-B-O.png,stimuli/mB-L_w0_O-B-O.png,stimuli/mB-L_w0_O-B-X.png,stimuli/mB-L_w0_O-X-X.png,stimuli/mW-L_w0_O-X-X.png,stimuli/m0_wW-R_O-X-X.png,stimuli/m0_none_O-X-X.png,stimuli/m0_none_O-X-X.png,stimuli/m0_wW-L_O-X-X.png,0,4,4,10,,,,,,,,,60.04021645186003,66.71109129977413,67.44974916439969,67.44974916439969,67.44974916439969,68.34031282097567,68.34031282097567,left,0.2946519744582474,61.096373904380016,,,S3,T-M,2023-01-26_09h17.38.243,knowing_that_K_ONLY,2022.2.5,59.98641388861393,
Does Anna know that the book is here?,Does Anna think that the book is here?,Is the book here?,early,21,no_3,no_K,0,0,0,no,X-X-O,X-O-O,X-X-O,M,stimuli/blue-M.png,mB-M,m0,stimuli/m0_w0_X-X-O.png,stimuli/m0_wW-R_X-X-O.png,stimuli/m0_none_X-X-O.png,stimuli/mW-R_none_X-X-O.png,stimuli/mB-M_none_X-X-O.png,stimuli/mB-M_none_X-O-O.png,stimuli/mB-M_none_X-X-O.png,stimuli/mW-L_none_X-X-O.png,stimuli/m0_none_X-X-O.png,stimuli/m0_wW-L_X-X-O.png,0,5,5,20,,,,,,,,,68.6567091686884,75.33195912197698,76.06939986173529,76.06939986173529,76.06939986173529,76.95701502182055,76.95701502182055,right,0.262429280905053,69.71426179155242,,,S3,T-M,2023-01-26_09h17.38.243,knowing_that_K_ONLY,2022.2.5,59.98641388861393,
Does Anna know that the book is here?,Does Anna think that the book is here?,Is the book here?,early,27,no_9,no_K,0,0,0,hide,X-X-B,O-O-B,X-X-O,L,stimuli/blue-L.png,mB-M,m0,stimuli/m0_w0_X-X-B.png,stimuli/m0_wW-R_X-X-B.png,stimuli/m0_none_X-X-B.png,stimuli/mW-R_none_X-X-B.png,stimuli/mB-M_none_X-X-B.png,stimuli/mB-M_none_O-O-B.png,stimuli/mB-M_none_X-X-O.png,stimuli/mW-L_none_X-X-O.png,stimuli/m0_none_X-X-O.png,stimuli/m0_wW-L_X-X-O.png,0,6,6,26,,,,,,,,,77.24062598845921,83.91378045931924,84.65069829090498,84.65069829090498,84.65069829090498,85.5404323519906,85.5404323519906,right,0.3186419114936143,78.30394439585507,,,S3,T-M,2023-01-26_09h17.38.243,knowing_that_K_ONLY,2022.2.5,59.98641388861393,
Does Anna know that the book is here?,Does Anna think that the book is here?,Is the book here?,late,13,mem_4,mem_K,1,1,1,no,B-X-O,B-X-O,X-X-O,L,stimuli/blue-L.png,mB-M,m0,stimuli/m0_w0_B-X-O.png,stimuli/mW-R_w0_B-X-O.png,stimuli/mB-M_w0_B-X-O.png,stimuli/mB-M_w0_B-X-O.png,stimuli/mB-M_w0_X-X-O.png,stimuli/mW-L_w0_X-X-O.png,stimuli/m0_wW-R_X-X-O.png,stimuli/m0_none_X-X-O.png,stimuli/m0_none_X-X-O.png,stimuli/m0_wW-L_X-X-O.png,0,7,7,12,,,,,,,,,85.89036187168676,92.5627634190023,93.30078256572597,93.30078256572597,93.30078256572597,94.19051791005768,94.19051791005768,left,0.348197452374734,86.94508694065735,,,S3,T-M,2023-01-26_09h17.38.243,knowing_that_K_ONLY,2022.2.5,59.98641388861393,
Does Anna know that the book is here?,Does Anna think that the book is here?,Is the book here?,early,23,no_5,no_K,0,0,0,no,X-O-X,X-O-O,X-O-X,R,stimuli/blue-R.png,mB-R,m0,stimuli/m0_w0_X-O-X.png,stimuli/m0_wW-R_X-O-X.png,stimuli/m0_none_X-O-X.png,stimuli/mW-R_none_X-O-X.png,stimuli/mB-R_none_X-O-X.png,stimuli/mB-R_none_X-O-O.png,stimuli/mB-R_none_X-O-X.png,stimuli/mW-L_none_X-O-X.png,stimuli/m0_none_X-O-X.png,stimuli/m0_wW-L_X-O-X.png,0,8,8,22,,,,,,,,,94.5571445618989,101.228429074632,101.97013616783079,101.97013616783079,101.97013616783079,102.85687585768756,102.85687585768756,right,0.33774410060141236,95.61086231085937,,,S3,T-M,2023-01-26_09h17.38.243,knowing_that_K_ONLY,2022.2.5,59.98641388861393,
Does Anna know that the book is here?,Does Anna think that the book is here?,Is the book here?,late,17,mem_8,mem_K,1,1,1,switch,O-X-B,B-X-O,X-X-O,L,stimuli/blue-L.png,mB-M,m0,stimuli/m0_w0_O-X-B.png,stimuli/mW-R_w0_O-X-B.png,stimuli/mB-M_w0_O-X-B.png,stimuli/mB-M_w0_B-X-O.png,stimuli/mB-M_w0_X-X-O.png,stimuli/mW-L_w0_X-X-O.png,stimuli/m0_wW-R_X-X-O.png,stimuli/m0_none_X-X-O.png,stimuli/m0_none_X-X-O.png,stimuli/m0_wW-L_X-X-O.png,0,9,9,16,,,,,,,,,103.22371840977576,109.89558710390702,110.63357449125033,110.63357449125033,110.63357449125033,111.5238866385771,111.5238866385771,left,0.27888164087198675,104.28105962369591,,,S3,T-M,2023-01-26_09h17.38.243,knowing_that_K_ONLY,2022.2.5,59.98641388861393,
Does Anna know that the book is here?,Does Anna think that the book is here?,Is the book here?,early,8,per_8,per_K,1,1,1,switch,O-X-B,B-X-O,B-X-X,L,stimuli/blue-L.png,mB-L,m0,stimuli/m0_w0_O-X-B.png,stimuli/m0_wW-R_O-X-B.png,stimuli/m0_none_O-X-B.png,stimuli/mW-R_none_O-X-B.png,stimuli/mB-L_none_O-X-B.png,stimuli/mB-L_none_B-X-O.png,stimuli/mB-L_none_B-X-X.png,stimuli/mW-L_none_B-X-X.png,stimuli/m0_none_B-X-X.png,stimuli/m0_wW-L_B-X-X.png,0,10,10,7,,,,,,,,,111.82343186880462,118.4946820557816,119.23485699575394,119.23485699575394,119.23485699575394,120.12381182739045,120.12381182739045,left,0.2957555352477357,112.88143393606879,,,S3,T-M,2023-01-26_09h17.38.243,knowing_that_K_ONLY,2022.2.5,59.98641388861393,
Does Anna know that the book is here?,Does Anna think that the book is here?,Is the book here?,late,6,per_6,per_K,1,1,1,no,X-B-X,O-B-X,X-B-X,M,stimuli/blue-M.png,mB-L,m0,stimuli/m0_w0_X-B-X.png,stimuli/mW-R_w0_X-B-X.png,stimuli/mB-L_w0_X-B-X.png,stimuli/mB-L_w0_O-B-X.png,stimuli/mB-L_w0_X-B-X.png,stimuli/mW-L_w0_X-B-X.png,stimuli/m0_wW-R_X-B-X.png,stimuli/m0_none_X-B-X.png,stimuli/m0_none_X-B-X.png,stimuli/m0_wW-L_X-B-X.png,0,11,11,5,,,,,,,,,120.44044621067587,127.11449507914949,127.85193068603985,127.85193068603985,127.85193068603985,128.74066063505597,128.74066063505597,left,0.286644100677222,121.50162037368864,,,S3,T-M,2023-01-26_09h17.38.243,knowing_that_K_ONLY,2022.2.5,59.98641388861393,
Does Anna know that the book is here?,Does Anna think that the book is here?,Is the book here?,early,1,per_1,per_K,1,1,1,no,B-X-X,B-O-X,B-X-X,L,stimuli/blue-L.png,mB-M,m0,stimuli/m0_w0_B-X-X.png,stimuli/m0_wW-R_B-X-X.png,stimuli/m0_none_B-X-X.png,stimuli/mW-R_none_B-X-X.png,stimuli/mB-M_none_B-X-X.png,stimuli/mB-M_none_B-O-X.png,stimuli/mB-M_none_B-X-X.png,stimuli/mW-L_none_B-X-X.png,stimuli/m0_none_B-X-X.png,stimuli/m0_wW-L_B-X-X.png,0,12,12,0,,,,,,,,,129.05744226672687,135.72936261014547,136.46924369502813,136.46924369502813,136.46924369502813,137.35733364301268,137.35733364301268,left,0.4614468552172184,130.115490850294,,,S3,T-M,2023-01-26_09h17.38.243,knowing_that_K_ONLY,2022.2.5,59.98641388861393,
Does Anna know that the book is here?,Does Anna think that the book is here?,Is the book here?,late,18,mem_9,mem_K,1,1,1,switch,X-O-B,X-B-O,X-X-O,M,stimuli/blue-M.png,mB-L,m0,stimuli/m0_w0_X-O-B.png,stimuli/mW-R_w0_X-O-B.png,stimuli/mB-L_w0_X-O-B.png,stimuli/mB-L_w0_X-B-O.png,stimuli/mB-L_w0_X-X-O.png,stimuli/mW-L_w0_X-X-O.png,stimuli/m0_wW-R_X-X-O.png,stimuli/m0_none_X-X-O.png,stimuli/m0_none_X-X-O.png,stimuli/m0_wW-L_X-X-O.png,0,13,13,17,,,,,,,,,137.84046648535877,144.51177441666368,145.25033154943958,145.25033154943958,145.25033154943958,146.14061771170236,146.14061771170236,left,0.06223660695832223,138.89374152675737,,,S3,T-M,2023-01-26_09h17.38.243,knowing_that_K_ONLY,2022.2.5,59.98641388861393,
Does Anna know that the book is here?,Does Anna think that the book is here?,Is the book here?,late,10,mem_1,mem_K,1,1,1,no,O-X-B,X-X-B,X-X-X,R,stimuli/blue-R.png,mB-M,m0,stimuli/m0_w0_O-X-B.png,stimuli/mW-R_w0_O-X-B.png,stimuli/mB-M_w0_O-X-B.png,stimuli/mB-M_w0_X-X-B.png,stimuli/mB-M_w0_X-X-X.png,stimuli/mW-L_w0_X-X-X.png,stimuli/m0_wW-R_X-X-X.png,stimuli/m0_none_X-X-X.png,stimuli/m0_none_X-X-X.png,stimuli/m0_wW-L_X-X-X.png,0,14,14,9,,,,,,,,,146.22385378845502,152.89438858558424,153.63242441404145,153.63242441404145,153.63242441404145,154.52401495957747,154.52401495957747,left,0.16842931555584073,147.28460898331832,,,S3,T-M,2023-01-26_09h17.38.243,knowing_that_K_ONLY,2022.2.5,59.98641388861393,
Does Anna know that the book is here?,Does Anna think that the book is here?,Is the book here?,late,16,mem_7,mem_K,1,1,1,switch,B-X-O,O-X-B,O-X-X,R,stimuli/blue-R.png,mB-M,m0,stimuli/m0_w0_B-X-O.png,stimuli/mW-R_w0_B-X-O.png,stimuli/mB-M_w0_B-X-O.png,stimuli/mB-M_w0_O-X-B.png,stimuli/mB-M_w0_O-X-X.png,stimuli/mW-L_w0_O-X-X.png,stimuli/m0_wW-R_O-X-X.png,stimuli/m0_none_O-X-X.png,stimuli/m0_none_O-X-X.png,stimuli/m0_wW-L_O-X-X.png,0,15,15,15,,,,,,,,,154.72379411908332,161.39276339975186,162.13168881379534,162.13168881379534,162.13168881379534,163.0238850346068,163.0238850346068,left,0.21111273940186948,155.78571896022186,,,S3,T-M,2023-01-26_09h17.38.243,knowing_that_K_ONLY,2022.2.5,59.98641388861393,
Does Anna know that the book is here?,Does Anna think that the book is here?,Is the book here?,early,19,no_1,no_K,0,0,0,no,X-X-X,O-X-X,X-X-X,L,stimuli/blue-L.png,mB-L,m0,stimuli/m0_w0_X-X-X.png,stimuli/m0_wW-R_X-X-X.png,stimuli/m0_none_X-X-X.png,stimuli/mW-R_none_X-X-X.png,stimuli/mB-L_none_X-X-X.png,stimuli/mB-L_none_O-X-X.png,stimuli/mB-L_none_X-X-X.png,stimuli/mW-L_none_X-X-X.png,stimuli/m0_none_X-X-X.png,stimuli/m0_wW-L_X-X-X.png,0,16,16,18,,,,,,,,,163.2572342583444,169.90663714846596,170.66937637899537,170.66937637899537,170.66937637899537,171.55738516384736,171.55738516384736,right,0.2066154080675915,164.3164313151501,,,S3,T-M,2023-01-26_09h17.38.243,knowing_that_K_ONLY,2022.2.5,59.98641388861393,
Does Anna know that the book is here?,Does Anna think that the book is here?,Is the book here?,late,12,mem_3,mem_K,1,1,1,no,X-O-B,X-O-B,X-O-X,R,stimuli/blue-R.png,mB-M,m0,stimuli/m0_w0_X-O-B.png,stimuli/mW-R_w0_X-O-B.png,stimuli/mB-M_w0_X-O-B.png,stimuli/mB-M_w0_X-O-B.png,stimuli/mB-M_w0_X-O-X.png,stimuli/mW-L_w0_X-O-X.png,stimuli/m0_wW-R_X-O-X.png,stimuli/m0_none_X-O-X.png,stimuli/m0_none_X-O-X.png,stimuli/m0_wW-L_X-O-X.png,0,17,17,11,,,,,,,,,171.79025863739662,178.46093202126212,179.20512084302027,179.20512084302027,179.20512084302027,180.09051989903674,180.09051989903674,left,0.2976931828306988,172.8432747911429,,,S3,T-M,2023-01-26_09h17.38.243,knowing_that_K_ONLY,2022.2.5,59.98641388861393,
Does Anna know that the book is here?,Does Anna think that the book is here?,Is the book here?,early,28,no_10,no_K,0,0,0,hide,O-B-O,O-B-O,X-O-X,L,stimuli/blue-L.png,mB-M,m0,stimuli/m0_w0_O-B-O.png,stimuli/m0_wW-R_O-B-O.png,stimuli/m0_none_O-B-O.png,stimuli/mW-R_none_O-B-O.png,stimuli/mB-M_none_O-B-O.png,stimuli/mB-M_none_O-B-O.png,stimuli/mB-M_none_X-O-X.png,stimuli/mW-L_none_X-O-X.png,stimuli/m0_none_X-O-X.png,stimuli/m0_wW-L_X-O-X.png,0,18,18,27,,,,,,,,,180.40740097942762,187.0813949906733,187.81856112345122,187.81856112345122,187.81856112345122,188.70738859649282,188.70738859649282,right,0.1040397483156994,181.46324629103765,,,S3,T-M,2023-01-26_09h17.38.243,knowing_that_K_ONLY,2022.2.5,59.98641388861393,
Does Anna know that the book is here?,Does Anna think that the book is here?,Is the book here?,early,3,per_3,per_K,1,1,1,no,O-B-X,O-B-O,O-B-X,M,stimuli/blue-M.png,mB-R,m0,stimuli/m0_w0_O-B-X.png,stimuli/m0_wW-R_O-B-X.png,stimuli/m0_none_O-B-X.png,stimuli/mW-R_none_O-B-X.png,stimuli/mB-R_none_O-B-X.png,stimuli/mB-R_none_O-B-O.png,stimuli/mB-R_none_O-B-X.png,stimuli/mW-L_none_O-B-X.png,stimuli/m0_none_O-B-X.png,stimuli/m0_wW-L_O-B-X.png,0,19,19,2,,,,,,,,,188.84072761866264,195.51045720139518,196.25273275666405,196.25273275666405,196.25273275666405,197.14056766650174,197.14056766650174,left,0.20689161913469434,189.90117548475973,,,S3,T-M,2023-01-26_09h17.38.243,knowing_that_K_ONLY,2022.2.5,59.98641388861393,
Does Anna know that the book is here?,Does Anna think that the book is here?,Is the book here?,early,20,no_2,no_K,0,0,0,no,X-O-X,O-O-X,X-O-X,L,stimuli/blue-L.png,mB-L,m0,stimuli/m0_w0_X-O-X.png,stimuli/m0_wW-R_X-O-X.png,stimuli/m0_none_X-O-X.png,stimuli/mW-R_none_X-O-X.png,stimuli/mB-L_none_X-O-X.png,stimuli/mB-L_none_O-O-X.png,stimuli/mB-L_none_X-O-X.png,stimuli/mW-L_none_X-O-X.png,stimuli/m0_none_X-O-X.png,stimuli/m0_wW-L_X-O-X.png,0,20,20,19,,,,,,,,,197.37386139144655,204.04568324843422,204.78575681487564,204.78575681487564,204.78575681487564,205.6739638557192,205.6739638557192,right,0.16977187432348728,198.43383414892014,,,S3,T-M,2023-01-26_09h17.38.243,knowing_that_K_ONLY,2022.2.5,59.98641388861393,
Does Anna know that the book is here?,Does Anna think that the book is here?,Is the book here?,early,7,per_7,per_K,1,1,1,switch,B-X-O,O-X-B,X-X-B,R,stimuli/blue-R.png,mB-R,m0,stimuli/m0_w0_B-X-O.png,stimuli/m0_wW-R_B-X-O.png,stimuli/m0_none_B-X-O.png,stimuli/mW-R_none_B-X-O.png,stimuli/mB-R_none_B-X-O.png,stimuli/mB-R_none_O-X-B.png,stimuli/mB-R_none_X-X-B.png,stimuli/mW-L_none_X-X-B.png,stimuli/m0_none_X-X-B.png,stimuli/m0_wW-L_X-X-B.png,0,21,21,6,,,,,,,,,205.87399035401177,212.54451135662384,213.2835840190528,213.2835840190528,213.2835840190528,214.1739696302684,214.1739696302684,left,0.4289415347157046,206.93729721265845,,,S3,T-M,2023-01-26_09h17.38.243,knowing_that_K_ONLY,2022.2.5,59.98641388861393,
Does Anna know that the book is here?,Does Anna think that the book is here?,Is the book here?,early,26,no_8,no_K,0,0,0,hide,X-B-O,O-B-O,X-O-X,R,stimuli/blue-R.png,mB-L,m0,stimuli/m0_w0_X-B-O.png,stimuli/m0_wW-R_X-B-O.png,stimuli/m0_none_X-B-O.png,stimuli/mW-R_none_X-B-O.png,stimuli/mB-L_none_X-B-O.png,stimuli/mB-L_none_O-B-O.png,stimuli/mB-L_none_X-O-X.png,stimuli/mW-L_none_X-O-X.png,stimuli/m0_none_X-O-X.png,stimuli/m0_wW-L_X-O-X.png,0,22,22,25,,,,,,,,,214.62358405755367,221.295120079536,222.03425080724992,222.03425080724992,222.03425080724992,222.92382382543292,222.92382382543292,right,2.1029830247862265,215.68075428379234,,,S3,T-M,2023-01-26_09h17.38.243,knowing_that_K_ONLY,2022.2.5,59.98641388861393,
Does Anna know that the book is here?,Does Anna think that the book is here?,Is the book here?,early,2,per_2,per_K,1,1,1,no,X-X-B,O-X-B,X-X-B,R,stimuli/blue-R.png,mB-L,m0,stimuli/m0_w0_X-X-B.png,stimuli/m0_wW-R_X-X-B.png,stimuli/m0_none_X-X-B.png,stimuli/mW-R_none_X-X-B.png,stimuli/mB-L_none_X-X-B.png,stimuli/mB-L_none_O-X-B.png,stimuli/mB-L_none_X-X-B.png,stimuli/mW-L_none_X-X-B.png,stimuli/m0_none_X-X-B.png,stimuli/m0_wW-L_X-X-B.png,0,23,23,1,,,,,,,,,225.05727512855083,231.73020920809358,232.47001843329053,232.47001843329053,232.47001843329053,233.35723932704423,233.35723932704423,left,0.8623066702857614,226.11199025274254,,,S3,T-M,2023-01-26_09h17.38.243,knowing_that_K_ONLY,2022.2.5,59.98641388861393,
Does Anna know that the book is here?,Does Anna think that the book is here?,Is the book here?,late,4,per_4,per_K,1,1,1,no,O-X-B,O-O-B,O-X-B,R,stimuli/blue-R.png,mB-M,m0,stimuli/m0_w0_O-X-B.png,stimuli/mW-R_w0_O-X-B.png,stimuli/mB-M_w0_O-X-B.png,stimuli/mB-M_w0_O-O-B.png,stimuli/mB-M_w0_O-X-B.png,stimuli/mW-L_w0_O-X-B.png,stimuli/m0_wW-R_O-X-B.png,stimuli/m0_none_O-X-B.png,stimuli/m0_none_O-X-B.png,stimuli/m0_wW-L_O-X-B.png,0,24,24,3,,,,,,,,,234.2406433117576,240.9146158292424,241.65124558005482,241.65124558005482,241.65124558005482,242.54065210174304,242.54065210174304,left,0.07095409603789449,235.30092756845988,,,S3,T-M,2023-01-26_09h17.38.243,knowing_that_K_ONLY,2022.2.5,59.98641388861393,
Does Anna know that the book is here?,Does Anna think that the book is here?,Is the book here?,late,15,mem_6,mem_K,1,1,1,no,X-B-O,X-B-X,X-X-X,M,stimuli/blue-M.png,mB-R,m0,stimuli/m0_w0_X-B-O.png,stimuli/mW-R_w0_X-B-O.png,stimuli/mB-R_w0_X-B-O.png,stimuli/mB-R_w0_X-B-X.png,stimuli/mB-R_w0_X-X-X.png,stimuli/mW-L_w0_X-X-X.png,stimuli/m0_wW-R_X-X-X.png,stimuli/m0_none_X-X-X.png,stimuli/m0_none_X-X-X.png,stimuli/m0_wW-L_X-X-X.png,0,25,25,14,,,,,,,,,242.64069919555914,249.31251527823042,250.04674799216446,250.04674799216446,250.04674799216446,250.94064222101588,250.94064222101588,left,0.17431604280136526,243.7029868643731,,,S3,T-M,2023-01-26_09h17.38.243,knowing_that_K_ONLY,2022.2.5,59.98641388861393,
Does Anna know that the book is here?,Does Anna think that the book is here?,Is the book here?,late,14,mem_5,mem_K,1,1,1,no,O-B-X,O-B-X,O-X-X,M,stimuli/blue-M.png,mB-L,m0,stimuli/m0_w0_O-B-X.png,stimuli/mW-R_w0_O-B-X.png,stimuli/mB-L_w0_O-B-X.png,stimuli/mB-L_w0_O-B-X.png,stimuli/mB-L_w0_O-X-X.png,stimuli/mW-L_w0_O-X-X.png,stimuli/m0_wW-R_O-X-X.png,stimuli/m0_none_O-X-X.png,stimuli/m0_none_O-X-X.png,stimuli/m0_wW-L_O-X-X.png,0,26,26,13,,,,,,,,,251.1408214214025,257.8126259550918,258.54872574005276,258.54872574005276,258.54872574005276,259.44083021138795,259.44083021138795,left,0.17961377650499344,252.20365830417722,,,S3,T-M,2023-01-26_09h17.38.243,knowing_that_K_ONLY,2022.2.5,59.98641388861393,
Does Anna know that the book is here?,Does Anna think that the book is here?,Is the book here?,early,22,no_4,no_K,0,0,0,no,O-X-X,O-O-X,O-X-X,M,stimuli/blue-M.png,mB-M,m0,stimuli/m0_w0_O-X-X.png,stimuli/m0_wW-R_O-X-X.png,stimuli/m0_none_O-X-X.png,stimuli/mW-R_none_O-X-X.png,stimuli/mB-M_none_O-X-X.png,stimuli/mB-M_none_O-O-X.png,stimuli/mB-M_none_O-X-X.png,stimuli/mW-L_none_O-X-X.png,stimuli/m0_none_O-X-X.png,stimuli/m0_wW-L_O-X-X.png,0,27,27,21,,,,,,,,,259.6406186741078,266.3141622785479,267.0521807837067,267.0521807837067,267.0521807837067,267.94067077245563,267.94067077245563,None,,260.6995828283252,270.94065088266507,270.94065088266507,S3,T-M,2023-01-26_09h17.38.243,knowing_that_K_ONLY,2022.2.5,59.98641388861393,
Does Anna know that the book is here?,Does Anna think that the book is here?,Is the book here?,late,13,mem_4,mem_K,1,1,1,no,B-X-O,B-X-O,X-X-O,L,stimuli/blue-L.png,mB-M,m0,stimuli/m0_w0_B-X-O.png,stimuli/mW-R_w0_B-X-O.png,stimuli/mB-M_w0_B-X-O.png,stimuli/mB-M_w0_B-X-O.png,stimuli/mB-M_w0_X-X-O.png,stimuli/mW-L_w0_X-X-O.png,stimuli/m0_wW-R_X-X-O.png,stimuli/m0_none_X-X-O.png,stimuli/m0_none_X-X-O.png,stimuli/m0_wW-L_X-X-O.png,1,0,28,12,,,,,,,,,270.95754370454233,277.61373285227455,278.35327260324266,278.35327260324266,278.35327260324266,279.24078703136183,279.24078703136183,left,0.4103176622884348,,,,S3,T-M,2023-01-26_09h17.38.243,knowing_that_K_ONLY,2022.2.5,59.98641388861393,
Does Anna know that the book is here?,Does Anna think that the book is here?,Is the book here?,early,27,no_9,no_K,0,0,0,hide,X-X-B,O-O-B,X-X-O,L,stimuli/blue-L.png,mB-M,m0,stimuli/m0_w0_X-X-B.png,stimuli/m0_wW-R_X-X-B.png,stimuli/m0_none_X-X-B.png,stimuli/mW-R_none_X-X-B.png,stimuli/mB-M_none_X-X-B.png,stimuli/mB-M_none_O-O-B.png,stimuli/mB-M_none_X-X-O.png,stimuli/mW-L_none_X-X-O.png,stimuli/m0_none_X-X-O.png,stimuli/m0_wW-L_X-X-O.png,1,1,29,26,,,,,,,,,279.674062983715,286.34453265799675,287.08596354012843,287.08596354012843,287.08596354012843,287.97402397415135,287.97402397415135,right,0.26945614046417177,280.7340642926283,,,S3,T-M,2023-01-26_09h17.38.243,knowing_that_K_ONLY,2022.2.5,59.98641388861393,
Does Anna know that the book is here?,Does Anna think that the book is here?,Is the book here?,late,14,mem_5,mem_K,1,1,1,no,O-B-X,O-B-X,O-X-X,M,stimuli/blue-M.png,mB-L,m0,stimuli/m0_w0_O-B-X.png,stimuli/mW-R_w0_O-B-X.png,stimuli/mB-L_w0_O-B-X.png,stimuli/mB-L_w0_O-B-X.png,stimuli/mB-L_w0_O-X-X.png,stimuli/mW-L_w0_O-X-X.png,stimuli/m0_wW-R_O-X-X.png,stimuli/m0_none_O-X-X.png,stimuli/m0_none_O-X-X.png,stimuli/m0_wW-L_O-X-X.png,1,2,30,13,,,,,,,,,288.27405714511406,294.94555787881836,295.6840627207421,295.6840627207421,295.6840627207421,296.5743309180252,296.5743309180252,left,0.30107187549583614,289.33611576096155,,,S3,T-M,2023-01-26_09h17.38.243,knowing_that_K_ONLY,2022.2.5,59.98641388861393,
Does Anna know that the book is here?,Does Anna think that the book is here?,Is the book here?,late,6,per_6,per_K,1,1,1,no,X-B-X,O-B-X,X-B-X,M,stimuli/blue-M.png,mB-L,m0,stimuli/m0_w0_X-B-X.png,stimuli/mW-R_w0_X-B-X.png,stimuli/mB-L_w0_X-B-X.png,stimuli/mB-L_w0_O-B-X.png,stimuli/mB-L_w0_X-B-X.png,stimuli/mW-L_w0_X-B-X.png,stimuli/m0_wW-R_X-B-X.png,stimuli/m0_none_X-B-X.png,stimuli/m0_none_X-B-X.png,stimuli/m0_wW-L_X-B-X.png,1,3,31,5,,,,,,,,,296.9074077162659,303.57958502252586,304.3161621617619,304.3161621617619,304.3161621617619,305.2070453376509,305.2070453376509,left,0.2600325651001185,297.96818280091975,,,S3,T-M,2023-01-26_09h17.38.243,knowing_that_K_ONLY,2022.2.5,59.98641388861393,
Does Anna know that the book is here?,Does Anna think that the book is here?,Is the book here?,early,8,per_8,per_K,1,1,1,switch,O-X-B,B-X-O,B-X-X,L,stimuli/blue-L.png,mB-L,m0,stimuli/m0_w0_O-X-B.png,stimuli/m0_wW-R_O-X-B.png,stimuli/m0_none_O-X-B.png,stimuli/mW-R_none_O-X-B.png,stimuli/mB-L_none_O-X-B.png,stimuli/mB-L_none_B-X-O.png,stimuli/mB-L_none_B-X-X.png,stimuli/mW-L_none_B-X-X.png,stimuli/m0_none_B-X-X.png,stimuli/m0_wW-L_B-X-X.png,1,4,32,7,,,,,,,,,305.4906681739958,312.16398336703423,312.9017330396455,312.9017330396455,312.9017330396455,313.79054415167775,313.79054415167775,left,0.2223302428610623,306.54376837797463,,,S3,T-M,2023-01-26_09h17.38.243,knowing_that_K_ONLY,2022.2.5,59.98641388861393,
Does Anna know that the book is here?,Does Anna think that the book is here?,Is the book here?,early,24,no_6,no_K,0,0,0,no,X-X-X,X-X-O,X-X-X,R,stimuli/blue-R.png,mB-R,m0,stimuli/m0_w0_X-X-X.png,stimuli/m0_wW-R_X-X-X.png,stimuli/m0_none_X-X-X.png,stimuli/mW-R_none_X-X-X.png,stimuli/mB-R_none_X-X-X.png,stimuli/mB-R_none_X-X-O.png,stimuli/mB-R_none_X-X-X.png,stimuli/mW-L_none_X-X-X.png,stimuli/m0_none_X-X-X.png,stimuli/m0_wW-L_X-X-X.png,1,5,33,23,,,,,,,,,314.0407804227434,320.7133863213239,321.42976348509546,321.42976348509546,321.42976348509546,322.3409637294244,322.3409637294244,right,0.20657530787866563,315.0954804691719,,,S3,T-M,2023-01-26_09h17.38.243,knowing_that_K_ONLY,2022.2.5,59.98641388861393,
Does Anna know that the book is here?,Does Anna think that the book is here?,Is the book here?,early,7,per_7,per_K,1,1,1,switch,B-X-O,O-X-B,X-X-B,R,stimuli/blue-R.png,mB-R,m0,stimuli/m0_w0_B-X-O.png,stimuli/m0_wW-R_B-X-O.png,stimuli/m0_none_B-X-O.png,stimuli/mW-R_none_B-X-O.png,stimuli/mB-R_none_B-X-O.png,stimuli/mB-R_none_O-X-B.png,stimuli/mB-R_none_X-X-B.png,stimuli/mW-L_none_X-X-B.png,stimuli/m0_none_X-X-B.png,stimuli/m0_wW-L_X-X-B.png,1,6,34,6,,,,,,,,,322.57433829654474,329.2481308437418,329.9855873028282,329.9855873028282,329.9855873028282,330.87410552217625,330.87410552217625,left,0.5530035881092772,323.63153129967395,,,S3,T-M,2023-01-26_09h17.38.243,knowing_that_K_ONLY,2022.2.5,59.98641388861393,
Does Anna know that the book is here?,Does Anna think that the book is here?,Is the book here?,early,25,no_7,no_K,0,0,0,hide,B-X-X,B-O-O,O-X-X,M,stimuli/blue-M.png,mB-L,m0,stimuli/m0_w0_B-X-X.png,stimuli/m0_wW-R_B-X-X.png,stimuli/m0_none_B-X-X.png,stimuli/mW-R_none_B-X-X.png,stimuli/mB-L_none_B-X-X.png,stimuli/mB-L_none_B-O-O.png,stimuli/mB-L_none_O-X-X.png,stimuli/mW-L_none_O-X-X.png,stimuli/m0_none_O-X-X.png,stimuli/m0_wW-L_O-X-X.png,1,7,35,24,,,,,,,,,331.4573486564914,338.12670482497197,338.8666394839529,338.8666394839529,338.8666394839529,339.7575431911973,339.7575431911973,right,0.3017802076647058,332.51294310053345,,,S3,T-M,2023-01-26_09h17.38.243,knowing_that_K_ONLY,2022.2.5,59.98641388861393,
Does Anna know that the book is here?,Does Anna think that the book is here?,Is the book here?,early,22,no_4,no_K,0,0,0,no,O-X-X,O-O-X,O-X-X,M,stimuli/blue-M.png,mB-M,m0,stimuli/m0_w0_O-X-X.png,stimuli/m0_wW-R_O-X-X.png,stimuli/m0_none_O-X-X.png,stimuli/mW-R_none_O-X-X.png,stimuli/mB-M_none_O-X-X.png,stimuli/mB-M_none_O-O-X.png,stimuli/mB-M_none_O-X-X.png,stimuli/mW-L_none_O-X-X.png,stimuli/m0_none_O-X-X.png,stimuli/m0_wW-L_O-X-X.png,1,8,36,21,,,,,,,,,340.09046760818455,346.76440644136164,347.50196812371723,347.50196812371723,347.50196812371723,348.39084981242195,348.39084981242195,right,0.41210357018280774,341.14858708914835,,,S3,T-M,2023-01-26_09h17.38.243,knowing_that_K_ONLY,2022.2.5,59.98641388861393,
Does Anna know that the book is here?,Does Anna think that the book is here?,Is the book here?,late,4,per_4,per_K,1,1,1,no,O-X-B,O-O-B,O-X-B,R,stimuli/blue-R.png,mB-M,m0,stimuli/m0_w0_O-X-B.png,stimuli/mW-R_w0_O-X-B.png,stimuli/mB-M_w0_O-X-B.png,stimuli/mB-M_w0_O-O-B.png,stimuli/mB-M_w0_O-X-B.png,stimuli/mW-L_w0_O-X-B.png,stimuli/m0_wW-R_O-X-B.png,stimuli/m0_none_O-X-B.png,stimuli/m0_none_O-X-B.png,stimuli/m0_wW-L_O-X-B.png,1,9,37,3,,,,,,,,,348.8233786156634,355.49899781274144,356.23449737613555,356.23449737613555,356.23449737613555,357.1076879694592,357.1076879694592,left,0.09559526236262172,349.87942474964075,,,S3,T-M,2023-01-26_09h17.38.243,knowing_that_K_ONLY,2022.2.5,59.98641388861393,
Does Anna know that the book is here?,Does Anna think that the book is here?,Is the book here?,early,9,per_9,per_K,1,1,1,switch,X-O-B,X-B-O,X-B-X,M,stimuli/blue-M.png,mB-R,m0,stimuli/m0_w0_X-O-B.png,stimuli/m0_wW-R_X-O-B.png,stimuli/m0_none_X-O-B.png,stimuli/mW-R_none_X-O-B.png,stimuli/mB-R_none_X-O-B.png,stimuli/mB-R_none_X-B-O.png,stimuli/mB-R_none_X-B-X.png,stimuli/mW-L_none_X-B-X.png,stimuli/m0_none_X-B-X.png,stimuli/m0_wW-L_X-B-X.png,1,10,38,8,,,,,,,,,357.22430291201454,363.89827414625324,364.63406596076675,364.63406596076675,364.63406596076675,365.5241981379222,365.5241981379222,left,0.35129095159936696,358.28115073160734,,,S3,T-M,2023-01-26_09h17.38.243,knowing_that_K_ONLY,2022.2.5,59.98641388861393,
Does Anna know that the book is here?,Does Anna think that the book is here?,Is the book here?,early,26,no_8,no_K,0,0,0,hide,X-B-O,O-B-O,X-O-X,R,stimuli/blue-R.png,mB-L,m0,stimuli/m0_w0_X-B-O.png,stimuli/m0_wW-R_X-B-O.png,stimuli/m0_none_X-B-O.png,stimuli/mW-R_none_X-B-O.png,stimuli/mB-L_none_X-B-O.png,stimuli/mB-L_none_O-B-O.png,stimuli/mB-L_none_X-O-X.png,stimuli/mW-L_none_X-O-X.png,stimuli/m0_none_X-O-X.png,stimuli/m0_wW-L_X-O-X.png,1,11,39,25,,,,,,,,,365.90767590724863,372.579566736822,373.31722850957885,373.31722850957885,373.31722850957885,374.2076080254046,374.2076080254046,right,0.3971727768657729,366.968242470175,,,S3,T-M,2023-01-26_09h17.38.243,knowing_that_K_ONLY,2022.2.5,59.98641388861393,
Does Anna know that the book is here?,Does Anna think that the book is here?,Is the book here?,late,18,mem_9,mem_K,1,1,1,switch,X-O-B,X-B-O,X-X-O,M,stimuli/blue-M.png,mB-L,m0,stimuli/m0_w0_X-O-B.png,stimuli/mW-R_w0_X-O-B.png,stimuli/mB-L_w0_X-O-B.png,stimuli/mB-L_w0_X-B-O.png,stimuli/mB-L_w0_X-X-O.png,stimuli/mW-L_w0_X-X-O.png,stimuli/m0_wW-R_X-X-O.png,stimuli/m0_none_X-X-O.png,stimuli/m0_none_X-X-O.png,stimuli/m0_wW-L_X-X-O.png,1,12,40,17,,,,,,,,,374.6240405596327,381.2935635454487,382.0326657217229,382.0326657217229,382.0326657217229,382.9241937107872,382.9241937107872,left,0.2875413855072111,375.6870086507406,,,S3,T-M,2023-01-26_09h17.38.243,knowing_that_K_ONLY,2022.2.5,59.98641388861393,
Does Anna know that the book is here?,Does Anna think that the book is here?,Is the book here?,late,15,mem_6,mem_K,1,1,1,no,X-B-O,X-B-X,X-X-X,M,stimuli/blue-M.png,mB-R,m0,stimuli/m0_w0_X-B-O.png,stimuli/mW-R_w0_X-B-O.png,stimuli/mB-R_w0_X-B-O.png,stimuli/mB-R_w0_X-B-X.png,stimuli/mB-R_w0_X-X-X.png,stimuli/mW-L_w0_X-X-X.png,stimuli/m0_wW-R_X-X-X.png,stimuli/m0_none_X-X-X.png,stimuli/m0_none_X-X-X.png,stimuli/m0_wW-L_X-X-X.png,1,13,41,14,,,,,,,,,383.24050376261584,389.9100126331905,390.64909139077645,390.64909139077645,390.64909139077645,391.5411689146422,391.5411689146422,left,0.3263135841116309,384.29875348950736,,,S3,T-M,2023-01-26_09h17.38.243,knowing_that_K_ONLY,2022.2.5,59.98641388861393,
Does Anna know that the book is here?,Does Anna think that the book is here?,Is the book here?,late,10,mem_1,mem_K,1,1,1,no,O-X-B,X-X-B,X-X-X,R,stimuli/blue-R.png,mB-M,m0,stimuli/m0_w0_O-X-B.png,stimuli/mW-R_w0_O-X-B.png,stimuli/mB-M_w0_O-X-B.png,stimuli/mB-M_w0_X-X-B.png,stimuli/mB-M_w0_X-X-X.png,stimuli/mW-L_w0_X-X-X.png,stimuli/m0_wW-R_X-X-X.png,stimuli/m0_none_X-X-X.png,stimuli/m0_none_X-X-X.png,stimuli/m0_wW-L_X-X-X.png,1,14,42,9,,,,,,,,,391.8912091111997,398.5639227994252,399.30402876692824,399.30402876692824,399.30402876692824,400.1911774801556,400.1911774801556,left,2.3973582008620724,392.94783910596743,,,S3,T-M,2023-01-26_09h17.38.243,knowing_that_K_ONLY,2022.2.5,59.98641388861393,
Does Anna know that the book is here?,Does Anna think that the book is here?,Is the book here?,early,20,no_2,no_K,0,0,0,no,X-O-X,O-O-X,X-O-X,L,stimuli/blue-L.png,mB-L,m0,stimuli/m0_w0_X-O-X.png,stimuli/m0_wW-R_X-O-X.png,stimuli/m0_none_X-O-X.png,stimuli/mW-R_none_X-O-X.png,stimuli/mB-L_none_X-O-X.png,stimuli/mB-L_none_O-O-X.png,stimuli/mB-L_none_X-O-X.png,stimuli/mW-L_none_X-O-X.png,stimuli/m0_none_X-O-X.png,stimuli/m0_wW-L_X-O-X.png,1,15,43,19,,,,,,,,,402.6075096031418,409.27746984292753,409.99798664299306,409.99798664299306,409.99798664299306,410.9077779224608,410.9077779224608,right,0.29695277044083923,403.6630254505435,,,S3,T-M,2023-01-26_09h17.38.243,knowing_that_K_ONLY,2022.2.5,59.98641388861393,
Does Anna know that the book is here?,Does Anna think that the book is here?,Is the book here?,late,12,mem_3,mem_K,1,1,1,no,X-O-B,X-O-B,X-O-X,R,stimuli/blue-R.png,mB-M,m0,stimuli/m0_w0_X-O-B.png,stimuli/mW-R_w0_X-O-B.png,stimuli/mB-M_w0_X-O-B.png,stimuli/mB-M_w0_X-O-B.png,stimuli/mB-M_w0_X-O-X.png,stimuli/mW-L_w0_X-O-X.png,stimuli/m0_wW-R_X-O-X.png,stimuli/m0_none_X-O-X.png,stimuli/m0_none_X-O-X.png,stimuli/m0_wW-L_X-O-X.png,1,16,44,11,,,,,,,,,411.2244870526483,417.89853142993525,418.63431169558316,418.63431169558316,418.63431169558316,419.5243072108133,419.5243072108133,left,0.32699272327590734,412.28278489992954,,,S3,T-M,2023-01-26_09h17.38.243,knowing_that_K_ONLY,2022.2.5,59.98641388861393,
Does Anna know that the book is here?,Does Anna think that the book is here?,Is the book here?,early,3,per_3,per_K,1,1,1,no,O-B-X,O-B-O,O-B-X,M,stimuli/blue-M.png,mB-R,m0,stimuli/m0_w0_O-B-X.png,stimuli/m0_wW-R_O-B-X.png,stimuli/m0_none_O-B-X.png,stimuli/mW-R_none_O-B-X.png,stimuli/mB-R_none_O-B-X.png,stimuli/mB-R_none_O-B-O.png,stimuli/mB-R_none_O-B-X.png,stimuli/mW-L_none_O-B-X.png,stimuli/m0_none_O-B-X.png,stimuli/m0_wW-L_O-B-X.png,1,17,45,2,,,,,,,,,419.87427073554136,426.5458118902752,427.2846330435714,427.2846330435714,427.2846330435714,428.1743513853289,428.1743513853289,left,0.19834319304209203,420.9352896300843,,,S3,T-M,2023-01-26_09h17.38.243,knowing_that_K_ONLY,2022.2.5,59.98641388861393,
Does Anna know that the book is here?,Does Anna think that the book is here?,Is the book here?,early,21,no_3,no_K,0,0,0,no,X-X-O,X-O-O,X-X-O,M,stimuli/blue-M.png,mB-M,m0,stimuli/m0_w0_X-X-O.png,stimuli/m0_wW-R_X-X-O.png,stimuli/m0_none_X-X-O.png,stimuli/mW-R_none_X-X-O.png,stimuli/mB-M_none_X-X-O.png,stimuli/mB-M_none_X-O-O.png,stimuli/mB-M_none_X-X-O.png,stimuli/mW-L_none_X-X-O.png,stimuli/m0_none_X-X-O.png,stimuli/m0_wW-L_X-X-O.png,1,18,46,20,,,,,,,,,428.3910301034339,435.06384869408794,435.8012698648963,435.8012698648963,435.8012698648963,436.69129104423337,436.69129104423337,right,0.27278671285603195,429.45282854826655,,,S3,T-M,2023-01-26_09h17.38.243,knowing_that_K_ONLY,2022.2.5,59.98641388861393,
Does Anna know that the book is here?,Does Anna think that the book is here?,Is the book here?,early,28,no_10,no_K,0,0,0,hide,O-B-O,O-B-O,X-O-X,L,stimuli/blue-L.png,mB-M,m0,stimuli/m0_w0_O-B-O.png,stimuli/m0_wW-R_O-B-O.png,stimuli/m0_none_O-B-O.png,stimuli/mW-R_none_O-B-O.png,stimuli/mB-M_none_O-B-O.png,stimuli/mB-M_none_O-B-O.png,stimuli/mB-M_none_X-O-X.png,stimuli/mW-L_none_X-O-X.png,stimuli/m0_none_X-O-X.png,stimuli/m0_wW-L_X-O-X.png,1,19,47,27,,,,,,,,,437.0142308019567,443.69271893647965,444.4333128447179,444.4333128447179,444.4333128447179,445.32427846686915,445.32427846686915,right,0.23241274675820023,438.0774760664208,,,S3,T-M,2023-01-26_09h17.38.243,knowing_that_K_ONLY,2022.2.5,59.98641388861393,
Does Anna know that the book is here?,Does Anna think that the book is here?,Is the book here?,early,23,no_5,no_K,0,0,0,no,X-O-X,X-O-O,X-O-X,R,stimuli/blue-R.png,mB-R,m0,stimuli/m0_w0_X-O-X.png,stimuli/m0_wW-R_X-O-X.png,stimuli/m0_none_X-O-X.png,stimuli/mW-R_none_X-O-X.png,stimuli/mB-R_none_X-O-X.png,stimuli/mB-R_none_X-O-O.png,stimuli/mB-R_none_X-O-X.png,stimuli/mW-L_none_X-O-X.png,stimuli/m0_none_X-O-X.png,stimuli/m0_wW-L_X-O-X.png,1,20,48,22,,,,,,,,,445.5742673991481,452.2434429557761,452.9824177734554,452.9824177734554,452.9824177734554,453.8743313672021,453.8743313672021,right,0.2502185726771131,446.6275735583622,,,S3,T-M,2023-01-26_09h17.38.243,knowing_that_K_ONLY,2022.2.5,59.98641388861393,
Does Anna know that the book is here?,Does Anna think that the book is here?,Is the book here?,late,16,mem_7,mem_K,1,1,1,switch,B-X-O,O-X-B,O-X-X,R,stimuli/blue-R.png,mB-M,m0,stimuli/m0_w0_B-X-O.png,stimuli/mW-R_w0_B-X-O.png,stimuli/mB-M_w0_B-X-O.png,stimuli/mB-M_w0_O-X-B.png,stimuli/mB-M_w0_O-X-X.png,stimuli/mW-L_w0_O-X-X.png,stimuli/m0_wW-R_O-X-X.png,stimuli/m0_none_O-X-X.png,stimuli/m0_none_O-X-X.png,stimuli/m0_wW-L_O-X-X.png,1,21,49,15,,,,,,,,,454.14127664023545,460.8110341327265,461.5533058383735,461.5533058383735,461.5533058383735,462.44077888294123,462.44077888294123,left,0.21183871559333056,455.1985126308864,,,S3,T-M,2023-01-26_09h17.38.243,knowing_that_K_ONLY,2022.2.5,59.98641388861393,
Does Anna know that the book is here?,Does Anna think that the book is here?,Is the book here?,late,5,per_5,per_K,1,1,1,no,X-B-O,O-B-O,X-B-O,M,stimuli/blue-M.png,mB-L,m0,stimuli/m0_w0_X-B-O.png,stimuli/mW-R_w0_X-B-O.png,stimuli/mB-L_w0_X-B-O.png,stimuli/mB-L_w0_O-B-O.png,stimuli/mB-L_w0_X-B-O.png,stimuli/mW-L_w0_X-B-O.png,stimuli/m0_wW-R_X-B-O.png,stimuli/m0_none_X-B-O.png,stimuli/m0_none_X-B-O.png,stimuli/m0_wW-L_X-B-O.png,1,22,50,4,,,,,,,,,462.6742060617544,469.3477990697138,470.0843832666287,470.0843832666287,470.0843832666287,470.9739460191922,470.9739460191922,left,0.26287070533726364,463.7352525453316,,,S3,T-M,2023-01-26_09h17.38.243,knowing_that_K_ONLY,2022.2.5,59.98641388861393,
Does Anna know that the book is here?,Does Anna think that the book is here?,Is the book here?,late,11,mem_2,mem_K,1,1,1,no,O-B-O,O-B-X,O-X-X,M,stimuli/blue-M.png,mB-L,m0,stimuli/m0_w0_O-B-O.png,stimuli/mW-R_w0_O-B-O.png,stimuli/mB-L_w0_O-B-O.png,stimuli/mB-L_w0_O-B-X.png,stimuli/mB-L_w0_O-X-X.png,stimuli/mW-L_w0_O-X-X.png,stimuli/m0_wW-R_O-X-X.png,stimuli/m0_none_O-X-X.png,stimuli/m0_none_O-X-X.png,stimuli/m0_wW-L_O-X-X.png,1,23,51,10,,,,,,,,,471.2575268303044,477.9308516473975,478.66739221510943,478.66739221510943,478.66739221510943,479.55788625741843,479.55788625741843,left,0.2215044969925657,472.31559305801056,,,S3,T-M,2023-01-26_09h17.38.243,knowing_that_K_ONLY,2022.2.5,59.98641388861393,
Does Anna know that the book is here?,Does Anna think that the book is here?,Is the book here?,early,1,per_1,per_K,1,1,1,no,B-X-X,B-O-X,B-X-X,L,stimuli/blue-L.png,mB-M,m0,stimuli/m0_w0_B-X-X.png,stimuli/m0_wW-R_B-X-X.png,stimuli/m0_none_B-X-X.png,stimuli/mW-R_none_B-X-X.png,stimuli/mB-M_none_B-X-X.png,stimuli/mB-M_none_B-O-X.png,stimuli/mB-M_none_B-X-X.png,stimuli/mW-L_none_B-X-X.png,stimuli/m0_none_B-X-X.png,stimuli/m0_wW-L_B-X-X.png,1,24,52,0,,,,,,,,,479.80764517432544,486.4796479640063,487.198194394703,487.198194394703,487.198194394703,488.1079782957677,488.1079782957677,left,0.40013827581424266,480.8622935714666,,,S3,T-M,2023-01-26_09h17.38.243,knowing_that_K_ONLY,2022.2.5,59.98641388861393,
Does Anna know that the book is here?,Does Anna think that the book is here?,Is the book here?,early,19,no_1,no_K,0,0,0,no,X-X-X,O-X-X,X-X-X,L,stimuli/blue-L.png,mB-L,m0,stimuli/m0_w0_X-X-X.png,stimuli/m0_wW-R_X-X-X.png,stimuli/m0_none_X-X-X.png,stimuli/mW-R_none_X-X-X.png,stimuli/mB-L_none_X-X-X.png,stimuli/mB-L_none_O-X-X.png,stimuli/mB-L_none_X-X-X.png,stimuli/mW-L_none_X-X-X.png,stimuli/m0_none_X-X-X.png,stimuli/m0_wW-L_X-X-X.png,1,25,53,18,,,,,,,,,488.52436720079277,495.1957056084648,495.93457135313656,495.93457135313656,495.93457135313656,496.82457424676977,496.82457424676977,right,1.4190977078396827,489.5800691136392,,,S3,T-M,2023-01-26_09h17.38.243,knowing_that_K_ONLY,2022.2.5,59.98641388861393,
Does Anna know that the book is here?,Does Anna think that the book is here?,Is the book here?,late,17,mem_8,mem_K,1,1,1,switch,O-X-B,B-X-O,X-X-O,L,stimuli/blue-L.png,mB-M,m0,stimuli/m0_w0_O-X-B.png,stimuli/mW-R_w0_O-X-B.png,stimuli/mB-M_w0_O-X-B.png,stimuli/mB-M_w0_B-X-O.png,stimuli/mB-M_w0_X-X-O.png,stimuli/mW-L_w0_X-X-O.png,stimuli/m0_wW-R_X-X-O.png,stimuli/m0_none_X-X-O.png,stimuli/m0_none_X-X-O.png,stimuli/m0_wW-L_X-X-O.png,1,26,54,16,,,,,,,,,498.27442703046836,504.95065639412496,505.68629711063113,505.68629711063113,505.68629711063113,506.57478164567146,506.57478164567146,left,0.26948789996095,499.32933463621885,,,S3,T-M,2023-01-26_09h17.38.243,knowing_that_K_ONLY,2022.2.5,59.98641388861393,
Does Anna know that the book is here?,Does Anna think that the book is here?,Is the book here?,early,2,per_2,per_K,1,1,1,no,X-X-B,O-X-B,X-X-B,R,stimuli/blue-R.png,mB-L,m0,stimuli/m0_w0_X-X-B.png,stimuli/m0_wW-R_X-X-B.png,stimuli/m0_none_X-X-B.png,stimuli/mW-R_none_X-X-B.png,stimuli/mB-L_none_X-X-B.png,stimuli/mB-L_none_O-X-B.png,stimuli/mB-L_none_X-X-B.png,stimuli/mW-L_none_X-X-B.png,stimuli/m0_none_X-X-B.png,stimuli/m0_wW-L_X-X-B.png,1,27,55,1,,,,,,,,,506.87454245530535,513.5490564875072,514.2859765646281,514.2859765646281,514.2859765646281,515.1746115561109,515.1746115561109,left,0.3087605506880209,507.9368885101285,,,S3,T-M,2023-01-26_09h17.38.243,knowing_that_K_ONLY,2022.2.5,59.98641388861393,
Does Anna know that the book is here?,Does Anna think that the book is here?,Is the book here?,early,3,per_3,per_K,1,1,1,no,O-B-X,O-B-O,O-B-X,M,stimuli/blue-M.png,mB-R,m0,stimuli/m0_w0_O-B-X.png,stimuli/m0_wW-R_O-B-X.png,stimuli/m0_none_O-B-X.png,stimuli/mW-R_none_O-B-X.png,stimuli/mB-R_none_O-B-X.png,stimuli/mB-R_none_O-B-O.png,stimuli/mB-R_none_O-B-X.png,stimuli/mW-L_none_O-B-X.png,stimuli/m0_none_O-B-X.png,stimuli/m0_wW-L_O-B-X.png,2,0,56,2,,,,,,,,,515.5077117729234,522.1596461161971,522.9185928186635,522.9185928186635,522.9185928186635,523.8077189589385,523.8077189589385,left,0.9095108438050374,516.5705043850467,,,S3,T-M,2023-01-26_09h17.38.243,knowing_that_K_ONLY,2022.2.5,59.98641388861393,
Does Anna know that the book is here?,Does Anna think that the book is here?,Is the book here?,early,25,no_7,no_K,0,0,0,hide,B-X-X,B-O-O,O-X-X,M,stimuli/blue-M.png,mB-L,m0,stimuli/m0_w0_B-X-X.png,stimuli/m0_wW-R_B-X-X.png,stimuli/m0_none_B-X-X.png,stimuli/mW-R_none_B-X-X.png,stimuli/mB-L_none_B-X-X.png,stimuli/mB-L_none_B-O-O.png,stimuli/mB-L_none_O-X-X.png,stimuli/mW-L_none_O-X-X.png,stimuli/m0_none_O-X-X.png,stimuli/m0_wW-L_O-X-X.png,2,1,57,24,,,,,,,,,524.7411777687958,531.4145689920988,532.1519497417612,532.1519497417612,532.1519497417612,533.0410187790403,533.0410187790403,right,0.1631431308342144,525.7999311557505,,,S3,T-M,2023-01-26_09h17.38.243,knowing_that_K_ONLY,2022.2.5,59.98641388861393,
Does Anna know that the book is here?,Does Anna think that the book is here?,Is the book here?,early,23,no_5,no_K,0,0,0,no,X-O-X,X-O-O,X-O-X,R,stimuli/blue-R.png,mB-R,m0,stimuli/m0_w0_X-O-X.png,stimuli/m0_wW-R_X-O-X.png,stimuli/m0_none_X-O-X.png,stimuli/mW-R_none_X-O-X.png,stimuli/mB-R_none_X-O-X.png,stimuli/mB-R_none_X-O-O.png,stimuli/mB-R_none_X-O-X.png,stimuli/mW-L_none_X-O-X.png,stimuli/m0_none_X-O-X.png,stimuli/m0_wW-L_X-O-X.png,2,2,58,22,,,,,,,,,533.2244597844547,539.8936876319349,540.6341471238993,540.6341471238993,540.6341471238993,541.5246475823224,541.5246475823224,right,0.33500669221393764,534.2779459139565,,,S3,T-M,2023-01-26_09h17.38.243,knowing_that_K_ONLY,2022.2.5,59.98641388861393,
Does Anna know that the book is here?,Does Anna think that the book is here?,Is the book here?,late,11,mem_2,mem_K,1,1,1,no,O-B-O,O-B-X,O-X-X,M,stimuli/blue-M.png,mB-L,m0,stimuli/m0_w0_O-B-O.png,stimuli/mW-R_w0_O-B-O.png,stimuli/mB-L_w0_O-B-O.png,stimuli/mB-L_w0_O-B-X.png,stimuli/mB-L_w0_O-X-X.png,stimuli/mW-L_w0_O-X-X.png,stimuli/m0_wW-R_O-X-X.png,stimuli/m0_none_O-X-X.png,stimuli/m0_none_O-X-X.png,stimuli/m0_wW-L_O-X-X.png,2,3,59,10,,,,,,,,,541.8911276274594,548.5631406827597,549.3032033419004,549.3032033419004,549.3032033419004,550.1913786233636,550.1913786233636,left,0.06822631182149053,542.9488801102852,,,S3,T-M,2023-01-26_09h17.38.243,knowing_that_K_ONLY,2022.2.5,59.98641388861393,
Does Anna know that the book is here?,Does Anna think that the book is here?,Is the book here?,early,28,no_10,no_K,0,0,0,hide,O-B-O,O-B-O,X-O-X,L,stimuli/blue-L.png,mB-M,m0,stimuli/m0_w0_O-B-O.png,stimuli/m0_wW-R_O-B-O.png,stimuli/m0_none_O-B-O.png,stimuli/mW-R_none_O-B-O.png,stimuli/mB-M_none_O-B-O.png,stimuli/mB-M_none_O-B-O.png,stimuli/mB-M_none_X-O-X.png,stimuli/mW-L_none_X-O-X.png,stimuli/m0_none_X-O-X.png,stimuli/m0_wW-L_X-O-X.png,2,4,60,27,,,,,,,,,550.2912078922382,556.9636062314967,557.7005699378205,557.7005699378205,557.7005699378205,558.5913353791693,558.5913353791693,right,0.052108548930846155,551.3518151971512,,,S3,T-M,2023-01-26_09h17.38.243,knowing_that_K_ONLY,2022.2.5,59.98641388861393,
Does Anna know that the book is here?,Does Anna think that the book is here?,Is the book here?,late,15,mem_6,mem_K,1,1,1,no,X-B-O,X-B-X,X-X-X,M,stimuli/blue-M.png,mB-R,m0,stimuli/m0_w0_X-B-O.png,stimuli/mW-R_w0_X-B-O.png,stimuli/mB-R_w0_X-B-O.png,stimuli/mB-R_w0_X-B-X.png,stimuli/mB-R_w0_X-X-X.png,stimuli/mW-L_w0_X-X-X.png,stimuli/m0_wW-R_X-X-X.png,stimuli/m0_none_X-X-X.png,stimuli/m0_none_X-X-X.png,stimuli/m0_wW-L_X-X-X.png,2,5,61,14,,,,,,,,,558.6746651302092,565.3432414276758,566.0880532480078,566.0880532480078,566.0880532480078,566.9746816194383,566.9746816194383,left,0.10924605326727033,559.735036645201,,,S3,T-M,2023-01-26_09h17.38.243,knowing_that_K_ONLY,2022.2.5,59.98641388861393,
Does Anna know that the book is here?,Does Anna think that the book is here?,Is the book here?,late,5,per_5,per_K,1,1,1,no,X-B-O,O-B-O,X-B-O,M,stimuli/blue-M.png,mB-L,m0,stimuli/m0_w0_X-B-O.png,stimuli/mW-R_w0_X-B-O.png,stimuli/mB-L_w0_X-B-O.png,stimuli/mB-L_w0_O-B-O.png,stimuli/mB-L_w0_X-B-O.png,stimuli/mW-L_w0_X-B-O.png,stimuli/m0_wW-R_X-B-O.png,stimuli/m0_none_X-B-O.png,stimuli/m0_none_X-B-O.png,stimuli/m0_wW-L_X-B-O.png,2,6,62,4,,,,,,,,,567.108106616768,573.7778041191632,574.5180335956393,574.5180335956393,574.5180335956393,575.4078263636911,575.4078263636911,left,0.16523989650886506,568.1615301896818,,,S3,T-M,2023-01-26_09h17.38.243,knowing_that_K_ONLY,2022.2.5,59.98641388861393,
Does Anna know that the book is here?,Does Anna think that the book is here?,Is the book here?,late,13,mem_4,mem_K,1,1,1,no,B-X-O,B-X-O,X-X-O,L,stimuli/blue-L.png,mB-M,m0,stimuli/m0_w0_B-X-O.png,stimuli/mW-R_w0_B-X-O.png,stimuli/mB-M_w0_B-X-O.png,stimuli/mB-M_w0_B-X-O.png,stimuli/mB-M_w0_X-X-O.png,stimuli/mW-L_w0_X-X-O.png,stimuli/m0_wW-R_X-X-O.png,stimuli/m0_none_X-X-O.png,stimuli/m0_none_X-X-O.png,stimuli/m0_wW-L_X-X-O.png,2,7,63,12,,,,,,,,,575.5913931236137,582.2623427184299,583.0037841870217,583.0037841870217,583.0037841870217,583.8910079679918,583.8910079679918,left,0.37726954370737076,576.6467902739532,,,S3,T-M,2023-01-26_09h17.38.243,knowing_that_K_ONLY,2022.2.5,59.98641388861393,
Does Anna know that the book is here?,Does Anna think that the book is here?,Is the book here?,early,27,no_9,no_K,0,0,0,hide,X-X-B,O-O-B,X-X-O,L,stimuli/blue-L.png,mB-M,m0,stimuli/m0_w0_X-X-B.png,stimuli/m0_wW-R_X-X-B.png,stimuli/m0_none_X-X-B.png,stimuli/mW-R_none_X-X-B.png,stimuli/mB-M_none_X-X-B.png,stimuli/mB-M_none_O-O-B.png,stimuli/mB-M_none_X-X-O.png,stimuli/mW-L_none_X-X-O.png,stimuli/m0_none_X-X-O.png,stimuli/m0_wW-L_X-X-O.png,2,8,64,26,,,,,,,,,584.2910609645769,590.9624038634356,591.7000621072948,591.7000621072948,591.7000621072948,592.5911762610776,592.5911762610776,right,0.45294847432523966,585.3440370180178,,,S3,T-M,2023-01-26_09h17.38.243,knowing_that_K_ONLY,2022.2.5,59.98641388861393,
Does Anna know that the book is here?,Does Anna think that the book is here?,Is the book here?,early,2,per_2,per_K,1,1,1,no,X-X-B,O-X-B,X-X-B,R,stimuli/blue-R.png,mB-L,m0,stimuli/m0_w0_X-X-B.png,stimuli/m0_wW-R_X-X-B.png,stimuli/m0_none_X-X-B.png,stimuli/mW-R_none_X-X-B.png,stimuli/mB-L_none_X-X-B.png,stimuli/mB-L_none_O-X-B.png,stimuli/mB-L_none_X-X-B.png,stimuli/mW-L_none_X-X-B.png,stimuli/m0_none_X-X-B.png,stimuli/m0_wW-L_X-X-B.png,2,9,65,1,,,,,,,,,593.0745067178505,599.7470869522076,600.4881835581036,600.4881835581036,600.4881835581036,601.3746473577339,601.3746473577339,left,0.2296156691154465,594.1363340349635,,,S3,T-M,2023-01-26_09h17.38.243,knowing_that_K_ONLY,2022.2.5,59.98641388861393,
Does Anna know that the book is here?,Does Anna think that the book is here?,Is the book here?,late,6,per_6,per_K,1,1,1,no,X-B-X,O-B-X,X-B-X,M,stimuli/blue-M.png,mB-L,m0,stimuli/m0_w0_X-B-X.png,stimuli/mW-R_w0_X-B-X.png,stimuli/mB-L_w0_X-B-X.png,stimuli/mB-L_w0_O-B-X.png,stimuli/mB-L_w0_X-B-X.png,stimuli/mW-L_w0_X-B-X.png,stimuli/m0_wW-R_X-B-X.png,stimuli/m0_none_X-B-X.png,stimuli/m0_none_X-B-X.png,stimuli/m0_wW-L_X-B-X.png,2,10,66,5,,,,,,,,,601.6245159890968,608.2968703784281,609.0328880379675,609.0328880379675,609.0328880379675,609.9246316063218,609.9246316063218,left,0.04004476824775338,602.6863359276904,,,S3,T-M,2023-01-26_09h17.38.243,knowing_that_K_ONLY,2022.2.5,59.98641388861393,
Does Anna know that the book is here?,Does Anna think that the book is here?,Is the book here?,late,4,per_4,per_K,1,1,1,no,O-X-B,O-O-B,O-X-B,R,stimuli/blue-R.png,mB-M,m0,stimuli/m0_w0_O-X-B.png,stimuli/mW-R_w0_O-X-B.png,stimuli/mB-M_w0_O-X-B.png,stimuli/mB-M_w0_O-O-B.png,stimuli/mB-M_w0_O-X-B.png,stimuli/mW-L_w0_O-X-B.png,stimuli/m0_wW-R_O-X-B.png,stimuli/m0_none_O-X-B.png,stimuli/m0_none_O-X-B.png,stimuli/m0_wW-L_O-X-B.png,2,11,67,3,,,,,,,,,609.9910528162727,616.6612507706741,617.4019672254799,617.4019672254799,617.4019672254799,618.2914629302686,618.2914629302686,left,0.23365521524101496,611.0444478377467,,,S3,T-M,2023-01-26_09h17.38.243,knowing_that_K_ONLY,2022.2.5,59.98641388861393,
Does Anna know that the book is here?,Does Anna think that the book is here?,Is the book here?,late,16,mem_7,mem_K,1,1,1,switch,B-X-O,O-X-B,O-X-X,R,stimuli/blue-R.png,mB-M,m0,stimuli/m0_w0_B-X-O.png,stimuli/mW-R_w0_B-X-O.png,stimuli/mB-M_w0_B-X-O.png,stimuli/mB-M_w0_O-X-B.png,stimuli/mB-M_w0_O-X-X.png,stimuli/mW-L_w0_O-X-X.png,stimuli/m0_wW-R_O-X-X.png,stimuli/m0_none_O-X-X.png,stimuli/m0_none_O-X-X.png,stimuli/m0_wW-L_O-X-X.png,2,12,68,15,,,,,,,,,618.541377115529,625.2099213327747,625.9508674822282,625.9508674822282,625.9508674822282,626.84112156427,626.84112156427,left,0.20246871409472078,619.5975695354864,,,S3,T-M,2023-01-26_09h17.38.243,knowing_that_K_ONLY,2022.2.5,59.98641388861393,
Does Anna know that the book is here?,Does Anna think that the book is here?,Is the book here?,early,20,no_2,no_K,0,0,0,no,X-O-X,O-O-X,X-O-X,L,stimuli/blue-L.png,mB-L,m0,stimuli/m0_w0_X-O-X.png,stimuli/m0_wW-R_X-O-X.png,stimuli/m0_none_X-O-X.png,stimuli/mW-R_none_X-O-X.png,stimuli/mB-L_none_X-O-X.png,stimuli/mB-L_none_O-O-X.png,stimuli/mB-L_none_X-O-X.png,stimuli/mW-L_none_X-O-X.png,stimuli/m0_none_X-O-X.png,stimuli/m0_wW-L_X-O-X.png,2,13,69,19,,,,,,,,,627.0746263772016,633.7481953251408,634.4852690666448,634.4852690666448,634.4852690666448,635.374409001437,635.374409001437,right,0.029188488493673503,628.1295176219428,,,S3,T-M,2023-01-26_09h17.38.243,knowing_that_K_ONLY,2022.2.5,59.98641388861393,
Does Anna know that the book is here?,Does Anna think that the book is here?,Is the book here?,early,24,no_6,no_K,0,0,0,no,X-X-X,X-X-O,X-X-X,R,stimuli/blue-R.png,mB-R,m0,stimuli/m0_w0_X-X-X.png,stimuli/m0_wW-R_X-X-X.png,stimuli/m0_none_X-X-X.png,stimuli/mW-R_none_X-X-X.png,stimuli/mB-R_none_X-X-X.png,stimuli/mB-R_none_X-X-O.png,stimuli/mB-R_none_X-X-X.png,stimuli/mW-L_none_X-X-X.png,stimuli/m0_none_X-X-X.png,stimuli/m0_wW-L_X-X-X.png,2,14,70,23,,,,,,,,,635.4244346335763,642.0982894165209,642.8311173360562,642.8311173360562,642.8311173360562,643.7242875135271,643.7242875135271,right,0.17567881208378822,636.483043338405,,,S3,T-M,2023-01-26_09h17.38.243,knowing_that_K_ONLY,2022.2.5,59.98641388861393,
Does Anna know that the book is here?,Does Anna think that the book is here?,Is the book here?,early,19,no_1,no_K,0,0,0,no,X-X-X,O-X-X,X-X-X,L,stimuli/blue-L.png,mB-L,m0,stimuli/m0_w0_X-X-X.png,stimuli/m0_wW-R_X-X-X.png,stimuli/m0_none_X-X-X.png,stimuli/mW-R_none_X-X-X.png,stimuli/mB-L_none_X-X-X.png,stimuli/mB-L_none_O-X-X.png,stimuli/mB-L_none_X-X-X.png,stimuli/mW-L_none_X-X-X.png,stimuli/m0_none_X-X-X.png,stimuli/m0_wW-L_X-X-X.png,2,15,71,18,,,,,,,,,643.924532478326,650.5954419728369,651.333984990255,651.333984990255,651.333984990255,652.224731183378,652.224731183378,right,0.17129664903040975,644.9787760226754,,,S3,T-M,2023-01-26_09h17.38.243,knowing_that_K_ONLY,2022.2.5,59.98641388861393,
Does Anna know that the book is here?,Does Anna think that the book is here?,Is the book here?,early,7,per_7,per_K,1,1,1,switch,B-X-O,O-X-B,X-X-B,R,stimuli/blue-R.png,mB-R,m0,stimuli/m0_w0_B-X-O.png,stimuli/m0_wW-R_B-X-O.png,stimuli/m0_none_B-X-O.png,stimuli/mW-R_none_B-X-O.png,stimuli/mB-R_none_B-X-O.png,stimuli/mB-R_none_O-X-B.png,stimuli/mB-R_none_X-X-B.png,stimuli/mW-L_none_X-X-B.png,stimuli/m0_none_X-X-B.png,stimuli/m0_wW-L_X-X-B.png,2,16,72,6,,,,,,,,,652.4248789451085,659.0947743826546,659.8335063528502,659.8335063528502,659.8335063528502,660.7247825118247,660.7247825118247,left,0.28755453834310174,653.4830568121979,,,S3,T-M,2023-01-26_09h17.38.243,knowing_that_K_ONLY,2022.2.5,59.98641388861393,
Does Anna know that the book is here?,Does Anna think that the book is here?,Is the book here?,late,17,mem_8,mem_K,1,1,1,switch,O-X-B,B-X-O,X-X-O,L,stimuli/blue-L.png,mB-M,m0,stimuli/m0_w0_O-X-B.png,stimuli/mW-R_w0_O-X-B.png,stimuli/mB-M_w0_O-X-B.png,stimuli/mB-M_w0_B-X-O.png,stimuli/mB-M_w0_X-X-O.png,stimuli/mW-L_w0_X-X-O.png,stimuli/m0_wW-R_X-X-O.png,stimuli/m0_none_X-X-O.png,stimuli/m0_none_X-X-O.png,stimuli/m0_wW-L_X-X-O.png,2,17,73,16,,,,,,,,,661.0415448952699,667.7137244471814,668.4526030240813,668.4526030240813,668.4526030240813,669.3413098753663,669.3413098753663,left,0.09508101583924145,662.0963697339175,,,S3,T-M,2023-01-26_09h17.38.243,knowing_that_K_ONLY,2022.2.5,59.98641388861393,
Does Anna know that the book is here?,Does Anna think that the book is here?,Is the book here?,early,26,no_8,no_K,0,0,0,hide,X-B-O,O-B-O,X-O-X,R,stimuli/blue-R.png,mB-L,m0,stimuli/m0_w0_X-B-O.png,stimuli/m0_wW-R_X-B-O.png,stimuli/m0_none_X-B-O.png,stimuli/mW-R_none_X-B-O.png,stimuli/mB-L_none_X-B-O.png,stimuli/mB-L_none_O-B-O.png,stimuli/mB-L_none_X-O-X.png,stimuli/mW-L_none_X-O-X.png,stimuli/m0_none_X-O-X.png,stimuli/m0_wW-L_X-O-X.png,2,18,74,25,,,,,,,,,669.4579896200448,676.12812598038,676.8698555297451,676.8698555297451,676.8698555297451,677.757883883547,677.757883883547,right,0.17503592383582145,670.5165726607665,,,S3,T-M,2023-01-26_09h17.38.243,knowing_that_K_ONLY,2022.2.5,59.98641388861393,
Does Anna know that the book is here?,Does Anna think that the book is here?,Is the book here?,late,18,mem_9,mem_K,1,1,1,switch,X-O-B,X-B-O,X-X-O,M,stimuli/blue-M.png,mB-L,m0,stimuli/m0_w0_X-O-B.png,stimuli/mW-R_w0_X-O-B.png,stimuli/mB-L_w0_X-O-B.png,stimuli/mB-L_w0_X-B-O.png,stimuli/mB-L_w0_X-X-O.png,stimuli/mW-L_w0_X-X-O.png,stimuli/m0_wW-R_X-X-O.png,stimuli/m0_none_X-X-O.png,stimuli/m0_none_X-X-O.png,stimuli/m0_wW-L_X-X-O.png,2,19,75,17,,,,,,,,,677.9579815999605,684.6312582966639,685.369196601212,685.369196601212,685.369196601212,686.2578161942074,686.2578161942074,left,0.05909691227134317,679.0166198187508,,,S3,T-M,2023-01-26_09h17.38.243,knowing_that_K_ONLY,2022.2.5,59.98641388861393,
Does Anna know that the book is here?,Does Anna think that the book is here?,Is the book here?,early,8,per_8,per_K,1,1,1,switch,O-X-B,B-X-O,B-X-X,L,stimuli/blue-L.png,mB-L,m0,stimuli/m0_w0_O-X-B.png,stimuli/m0_wW-R_O-X-B.png,stimuli/m0_none_O-X-B.png,stimuli/mW-R_none_O-X-B.png,stimuli/mB-L_none_O-X-B.png,stimuli/mB-L_none_B-X-O.png,stimuli/mB-L_none_B-X-X.png,stimuli/mW-L_none_B-X-X.png,stimuli/m0_none_B-X-X.png,stimuli/m0_wW-L_B-X-X.png,2,20,76,7,,,,,,,,,686.3412059353432,693.018944995827,693.752630099887,693.752630099887,693.752630099887,694.6412407102762,694.6412407102762,left,0.15534057072363794,687.3978160402039,,,S3,T-M,2023-01-26_09h17.38.243,knowing_that_K_ONLY,2022.2.5,59.98641388861393,
Does Anna know that the book is here?,Does Anna think that the book is here?,Is the book here?,early,22,no_4,no_K,0,0,0,no,O-X-X,O-O-X,O-X-X,M,stimuli/blue-M.png,mB-M,m0,stimuli/m0_w0_O-X-X.png,stimuli/m0_wW-R_O-X-X.png,stimuli/m0_none_O-X-X.png,stimuli/mW-R_none_O-X-X.png,stimuli/mB-M_none_O-X-X.png,stimuli/mB-M_none_O-O-X.png,stimuli/mB-M_none_O-X-X.png,stimuli/mW-L_none_O-X-X.png,stimuli/m0_none_O-X-X.png,stimuli/m0_wW-L_O-X-X.png,2,21,77,21,,,,,,,,,694.8246849237476,701.4946201408748,702.2358893384226,702.2358893384226,702.2358893384226,703.124877212802,703.124877212802,right,0.18336267536506057,695.8803823452909,,,S3,T-M,2023-01-26_09h17.38.243,knowing_that_K_ONLY,2022.2.5,59.98641388861393,
Does Anna know that the book is here?,Does Anna think that the book is here?,Is the book here?,late,12,mem_3,mem_K,1,1,1,no,X-O-B,X-O-B,X-O-X,R,stimuli/blue-R.png,mB-M,m0,stimuli/m0_w0_X-O-B.png,stimuli/mW-R_w0_X-O-B.png,stimuli/mB-M_w0_X-O-B.png,stimuli/mB-M_w0_X-O-B.png,stimuli/mB-M_w0_X-O-X.png,stimuli/mW-L_w0_X-O-X.png,stimuli/m0_wW-R_X-O-X.png,stimuli/m0_none_X-O-X.png,stimuli/m0_none_X-O-X.png,stimuli/m0_wW-L_X-O-X.png,2,22,78,11,,,,,,,,,703.3243423065869,709.9716102556558,710.7141578515293,710.7141578515293,710.7141578515293,711.6248072778108,711.6248072778108,right,0.13218375795986503,704.3767566346796,,,S3,T-M,2023-01-26_09h17.38.243,knowing_that_K_ONLY,2022.2.5,59.98641388861393,
Does Anna know that the book is here?,Does Anna think that the book is here?,Is the book here?,early,1,per_1,per_K,1,1,1,no,B-X-X,B-O-X,B-X-X,L,stimuli/blue-L.png,mB-M,m0,stimuli/m0_w0_B-X-X.png,stimuli/m0_wW-R_B-X-X.png,stimuli/m0_none_B-X-X.png,stimuli/mW-R_none_B-X-X.png,stimuli/mB-M_none_B-X-X.png,stimuli/mB-M_none_B-O-X.png,stimuli/mB-M_none_B-X-X.png,stimuli/mW-L_none_B-X-X.png,stimuli/m0_none_B-X-X.png,stimuli/m0_wW-L_B-X-X.png,2,23,79,0,,,,,,,,,711.7749152920442,718.4492480708286,719.1901845961111,719.1901845961111,719.1901845961111,720.0748753200751,720.0748753200751,left,0.2655288754031062,712.8330158456229,,,S3,T-M,2023-01-26_09h17.38.243,knowing_that_K_ONLY,2022.2.5,59.98641388861393,
Does Anna know that the book is here?,Does Anna think that the book is here?,Is the book here?,late,10,mem_1,mem_K,1,1,1,no,O-X-B,X-X-B,X-X-X,R,stimuli/blue-R.png,mB-M,m0,stimuli/m0_w0_O-X-B.png,stimuli/mW-R_w0_O-X-B.png,stimuli/mB-M_w0_O-X-B.png,stimuli/mB-M_w0_X-X-B.png,stimuli/mB-M_w0_X-X-X.png,stimuli/mW-L_w0_X-X-X.png,stimuli/m0_wW-R_X-X-X.png,stimuli/m0_none_X-X-X.png,stimuli/m0_none_X-X-X.png,stimuli/m0_wW-L_X-X-X.png,2,24,80,9,,,,,,,,,720.3580846417462,727.0279704553541,727.7724082199857,727.7724082199857,727.7724082199857,728.6582410009578,728.6582410009578,left,0.05098509835079312,721.4177118948428,,,S3,T-M,2023-01-26_09h17.38.243,knowing_that_K_ONLY,2022.2.5,59.98641388861393,
Does Anna know that the book is here?,Does Anna think that the book is here?,Is the book here?,early,9,per_9,per_K,1,1,1,switch,X-O-B,X-B-O,X-B-X,M,stimuli/blue-M.png,mB-R,m0,stimuli/m0_w0_X-O-B.png,stimuli/m0_wW-R_X-O-B.png,stimuli/m0_none_X-O-B.png,stimuli/mW-R_none_X-O-B.png,stimuli/mB-R_none_X-O-B.png,stimuli/mB-R_none_X-B-O.png,stimuli/mB-R_none_X-B-X.png,stimuli/mW-L_none_X-B-X.png,stimuli/m0_none_X-B-X.png,stimuli/m0_wW-L_X-B-X.png,2,25,81,8,,,,,,,,,728.7414254284231,735.4139466350898,736.1502687362954,736.1502687362954,736.1502687362954,737.0412555313669,737.0412555313669,left,0.8121033135103062,729.8035260693869,,,S3,T-M,2023-01-26_09h17.38.243,knowing_that_K_ONLY,2022.2.5,59.98641388861393,
Does Anna know that the book is here?,Does Anna think that the book is here?,Is the book here?,early,21,no_3,no_K,0,0,0,no,X-X-O,X-O-O,X-X-O,M,stimuli/blue-M.png,mB-M,m0,stimuli/m0_w0_X-X-O.png,stimuli/m0_wW-R_X-X-O.png,stimuli/m0_none_X-X-O.png,stimuli/mW-R_none_X-X-O.png,stimuli/mB-M_none_X-X-O.png,stimuli/mB-M_none_X-O-O.png,stimuli/mB-M_none_X-X-O.png,stimuli/mW-L_none_X-X-O.png,stimuli/m0_none_X-X-O.png,stimuli/m0_wW-L_X-X-O.png,2,26,82,20,,,,,,,,,737.8746265055379,744.545419227914,745.281586702331,745.281586702331,745.281586702331,746.1748245690251,746.1748245690251,right,0.18946466105990112,738.9270860668039,,,S3,T-M,2023-01-26_09h17.38.243,knowing_that_K_ONLY,2022.2.5,59.98641388861393,
Does Anna know that the book is here?,Does Anna think that the book is here?,Is the book here?,late,14,mem_5,mem_K,1,1,1,no,O-B-X,O-B-X,O-X-X,M,stimuli/blue-M.png,mB-L,m0,stimuli/m0_w0_O-B-X.png,stimuli/mW-R_w0_O-B-X.png,stimuli/mB-L_w0_O-B-X.png,stimuli/mB-L_w0_O-B-X.png,stimuli/mB-L_w0_O-X-X.png,stimuli/mW-L_w0_O-X-X.png,stimuli/m0_wW-R_O-X-X.png,stimuli/m0_none_O-X-X.png,stimuli/m0_none_O-X-X.png,stimuli/m0_wW-L_O-X-X.png,2,27,83,13,,,,,,,,,746.3913598884828,753.0667420123937,753.8006385253975,753.8006385253975,753.8006385253975,754.6916266037151,754.6916266037151,left,0.04830800089985132,747.4436369130854,,,S3,T-M,2023-01-26_09h17.38.243,knowing_that_K_ONLY,2022.2.5,59.98641388861393,
