K_text,B_text,T_text,Anna_exit,trial_num,trial_code,cond,K_hit,B_hit,T_hit,book_move,start_shelf,mid_shelf,end_shelf,rectangle,rectangle_path,Todd_mid,Todd_final,frame_1,frame_2,frame_3,frame_4,frame_5,frame_6,frame_7,frame_8,frame_9,frame_10,trials.thisRepN,trials.thisTrialN,trials.thisN,trials.thisIndex,frames.thisRepN,frames.thisTrialN,frames.thisN,frames.thisIndex,sessionInst.started,startSession.started,startSession.keys,startSession.rt,crossText.started,movingImage.started,staticImage.started,promptText3.started,rectImage.started,respText.started,keyResp.started,keyResp.keys,keyResp.rt,crossText.stopped,subject,session,date,expName,psychopyVersion,frameRate,
,,,,,,,,,,,,,,,,,,,,,,,,,,,,,,,,,,,,23.504272127873264,23.504272127873264,left,3.077575472649187,,,,,,,,,,,S4,B-M,2023-01-26_14h04.56.738,knowing_that_K_ONLY,2022.2.5,59.95699201261808,
Does Anna know that the book is here?,Does Anna think that the book is here?,Is the book here?,early,28,no_10,no_K,0,0,0,hide,O-B-O,O-B-O,X-O-X,L,stimuli/blue-L.png,mB-M,m0,stimuli/m0_w0_O-B-O.png,stimuli/m0_wW-R_O-B-O.png,stimuli/m0_none_O-B-O.png,stimuli/mW-R_none_O-B-O.png,stimuli/mB-M_none_O-B-O.png,stimuli/mB-M_none_O-B-O.png,stimuli/mB-M_none_X-O-X.png,stimuli/mW-L_none_X-O-X.png,stimuli/m0_none_X-O-X.png,stimuli/m0_wW-L_X-O-X.png,0,0,0,27,,,,,,,,,26.63760313007515,33.27632136980537,34.01657715206966,34.01657715206966,34.01657715206966,34.90105710865464,34.90105710865464,right,0.44882007758133113,,S4,B-M,2023-01-26_14h04.56.738,knowing_that_K_ONLY,2022.2.5,59.95699201261808,
Does Anna know that the book is here?,Does Anna think that the book is here?,Is the book here?,late,15,mem_6,mem_K,1,1,1,no,X-B-O,X-B-X,X-X-X,M,stimuli/blue-M.png,mB-R,m0,stimuli/m0_w0_X-B-O.png,stimuli/mW-R_w0_X-B-O.png,stimuli/mB-R_w0_X-B-O.png,stimuli/mB-R_w0_X-B-X.png,stimuli/mB-R_w0_X-X-X.png,stimuli/mW-L_w0_X-X-X.png,stimuli/m0_wW-R_X-X-X.png,stimuli/m0_none_X-X-X.png,stimuli/m0_none_X-X-X.png,stimuli/m0_wW-L_X-X-X.png,0,1,1,14,,,,,,,,,35.36789478454739,42.04089077899698,42.78160980017856,42.78160980017856,42.78160980017856,43.667997569660656,43.667997569660656,left,0.3365619546966627,36.42992805689573,S4,B-M,2023-01-26_14h04.56.738,knowing_that_K_ONLY,2022.2.5,59.95699201261808,
Does Anna know that the book is here?,Does Anna think that the book is here?,Is the book here?,late,12,mem_3,mem_K,1,1,1,no,X-O-B,X-O-B,X-O-X,R,stimuli/blue-R.png,mB-M,m0,stimuli/m0_w0_X-O-B.png,stimuli/mW-R_w0_X-O-B.png,stimuli/mB-M_w0_X-O-B.png,stimuli/mB-M_w0_X-O-B.png,stimuli/mB-M_w0_X-O-X.png,stimuli/mW-L_w0_X-O-X.png,stimuli/m0_wW-R_X-O-X.png,stimuli/m0_none_X-O-X.png,stimuli/m0_none_X-O-X.png,stimuli/m0_wW-L_X-O-X.png,0,2,2,11,,,,,,,,,44.034604652551934,50.7061968150083,51.446113188168965,51.446113188168965,51.446113188168965,52.33451431454159,52.33451431454159,left,0.23050494550261647,45.08820883743465,S4,B-M,2023-01-26_14h04.56.738,knowing_that_K_ONLY,2022.2.5,59.95699201261808,
Does Anna know that the book is here?,Does Anna think that the book is here?,Is the book here?,late,16,mem_7,mem_K,1,1,1,switch,B-X-O,O-X-B,O-X-X,R,stimuli/blue-R.png,mB-M,m0,stimuli/m0_w0_B-X-O.png,stimuli/mW-R_w0_B-X-O.png,stimuli/mB-M_w0_B-X-O.png,stimuli/mB-M_w0_O-X-B.png,stimuli/mB-M_w0_O-X-X.png,stimuli/mW-L_w0_O-X-X.png,stimuli/m0_wW-R_O-X-X.png,stimuli/m0_none_O-X-X.png,stimuli/m0_none_O-X-X.png,stimuli/m0_wW-L_O-X-X.png,0,3,3,15,,,,,,,,,52.58444646478165,59.23603305814322,59.99985660123639,59.99985660123639,59.99985660123639,60.88467243814375,60.88467243814375,left,0.2646681737387553,53.6397906828206,S4,B-M,2023-01-26_14h04.56.738,knowing_that_K_ONLY,2022.2.5,59.95699201261808,
Does Anna know that the book is here?,Does Anna think that the book is here?,Is the book here?,early,19,no_1,no_K,0,0,0,no,X-X-X,O-X-X,X-X-X,L,stimuli/blue-L.png,mB-L,m0,stimuli/m0_w0_X-X-X.png,stimuli/m0_wW-R_X-X-X.png,stimuli/m0_none_X-X-X.png,stimuli/mW-R_none_X-X-X.png,stimuli/mB-L_none_X-X-X.png,stimuli/mB-L_none_O-X-X.png,stimuli/mB-L_none_X-X-X.png,stimuli/mW-L_none_X-X-X.png,stimuli/m0_none_X-X-X.png,stimuli/m0_wW-L_X-X-X.png,0,4,4,18,,,,,,,,,61.16779835126363,67.83922048832756,68.58206771372352,68.58206771372352,68.58206771372352,69.46782927657478,69.46782927657478,right,0.4329355382360518,62.22685329255182,S4,B-M,2023-01-26_14h04.56.738,knowing_that_K_ONLY,2022.2.5,59.95699201261808,
Does Anna know that the book is here?,Does Anna think that the book is here?,Is the book here?,early,2,per_2,per_K,1,1,1,no,X-X-B,O-X-B,X-X-B,R,stimuli/blue-R.png,mB-L,m0,stimuli/m0_w0_X-X-B.png,stimuli/m0_wW-R_X-X-B.png,stimuli/m0_none_X-X-B.png,stimuli/mW-R_none_X-X-B.png,stimuli/mB-L_none_X-X-B.png,stimuli/mB-L_none_O-X-B.png,stimuli/mB-L_none_X-X-B.png,stimuli/mW-L_none_X-X-B.png,stimuli/m0_none_X-X-B.png,stimuli/m0_wW-L_X-X-B.png,0,5,5,1,,,,,,,,,69.91789058200084,76.59237317554653,77.33032367064152,77.33032367064152,77.33032367064152,78.21780633926392,78.21780633926392,left,0.3318702169926837,70.98036207060795,S4,B-M,2023-01-26_14h04.56.738,knowing_that_K_ONLY,2022.2.5,59.95699201261808,
Does Anna know that the book is here?,Does Anna think that the book is here?,Is the book here?,late,5,per_5,per_K,1,1,1,no,X-B-O,O-B-O,X-B-O,M,stimuli/blue-M.png,mB-L,m0,stimuli/m0_w0_X-B-O.png,stimuli/mW-R_w0_X-B-O.png,stimuli/mB-L_w0_X-B-O.png,stimuli/mB-L_w0_O-B-O.png,stimuli/mB-L_w0_X-B-O.png,stimuli/mW-L_w0_X-B-O.png,stimuli/m0_wW-R_X-B-O.png,stimuli/m0_none_X-B-O.png,stimuli/m0_none_X-B-O.png,stimuli/m0_wW-L_X-B-O.png,0,6,6,4,,,,,,,,,78.56808585452382,85.24265025276691,85.98158304521348,85.98158304521348,85.98158304521348,86.86792461911682,86.86792461911682,left,0.5851887592580169,79.62799348903354,S4,B-M,2023-01-26_14h04.56.738,knowing_that_K_ONLY,2022.2.5,59.95699201261808,
Does Anna know that the book is here?,Does Anna think that the book is here?,Is the book here?,early,22,no_4,no_K,0,0,0,no,O-X-X,O-O-X,O-X-X,M,stimuli/blue-M.png,mB-M,m0,stimuli/m0_w0_O-X-X.png,stimuli/m0_wW-R_O-X-X.png,stimuli/m0_none_O-X-X.png,stimuli/mW-R_none_O-X-X.png,stimuli/mB-M_none_O-X-X.png,stimuli/mB-M_none_O-O-X.png,stimuli/mB-M_none_O-X-X.png,stimuli/mW-L_none_O-X-X.png,stimuli/m0_none_O-X-X.png,stimuli/m0_wW-L_O-X-X.png,0,7,7,21,,,,,,,,,87.48456554673612,94.15937311330345,94.87403462489601,94.87403462489601,94.87403462489601,95.78453969000839,95.78453969000839,right,0.30057656776625663,88.53954661614262,S4,B-M,2023-01-26_14h04.56.738,knowing_that_K_ONLY,2022.2.5,59.95699201261808,
Does Anna know that the book is here?,Does Anna think that the book is here?,Is the book here?,late,18,mem_9,mem_K,1,1,1,switch,X-O-B,X-B-O,X-X-O,M,stimuli/blue-M.png,mB-L,m0,stimuli/m0_w0_X-O-B.png,stimuli/mW-R_w0_X-O-B.png,stimuli/mB-L_w0_X-O-B.png,stimuli/mB-L_w0_X-B-O.png,stimuli/mB-L_w0_X-X-O.png,stimuli/mW-L_w0_X-X-O.png,stimuli/m0_wW-R_X-X-O.png,stimuli/m0_none_X-X-O.png,stimuli/m0_none_X-X-O.png,stimuli/m0_wW-L_X-X-O.png,0,8,8,17,,,,,,,,,96.10144868027419,102.75267116259784,103.51525127503555,103.51525127503555,103.51525127503555,104.4012816704344,104.4012816704344,left,0.31561033881735057,97.15614551864564,S4,B-M,2023-01-26_14h04.56.738,knowing_that_K_ONLY,2022.2.5,59.95699201261808,
Does Anna know that the book is here?,Does Anna think that the book is here?,Is the book here?,late,14,mem_5,mem_K,1,1,1,no,O-B-X,O-B-X,O-X-X,M,stimuli/blue-M.png,mB-L,m0,stimuli/m0_w0_O-B-X.png,stimuli/mW-R_w0_O-B-X.png,stimuli/mB-L_w0_O-B-X.png,stimuli/mB-L_w0_O-B-X.png,stimuli/mB-L_w0_O-X-X.png,stimuli/mW-L_w0_O-X-X.png,stimuli/m0_wW-R_O-X-X.png,stimuli/m0_none_O-X-X.png,stimuli/m0_none_O-X-X.png,stimuli/m0_wW-L_O-X-X.png,0,9,9,13,,,,,,,,,104.73453170212451,111.40828094095923,112.14538676280063,112.14538676280063,112.14538676280063,113.03463031677529,113.03463031677529,left,0.458661658805795,105.79540848114993,S4,B-M,2023-01-26_14h04.56.738,knowing_that_K_ONLY,2022.2.5,59.95699201261808,
Does Anna know that the book is here?,Does Anna think that the book is here?,Is the book here?,early,24,no_6,no_K,0,0,0,no,X-X-X,X-X-O,X-X-X,R,stimuli/blue-R.png,mB-R,m0,stimuli/m0_w0_X-X-X.png,stimuli/m0_wW-R_X-X-X.png,stimuli/m0_none_X-X-X.png,stimuli/mW-R_none_X-X-X.png,stimuli/mB-R_none_X-X-X.png,stimuli/mB-R_none_X-X-O.png,stimuli/mB-R_none_X-X-X.png,stimuli/mW-L_none_X-X-X.png,stimuli/m0_none_X-X-X.png,stimuli/m0_wW-L_X-X-X.png,0,10,10,23,,,,,,,,,113.51790591632016,120.19105397118255,120.90669521386735,120.90669521386735,120.90669521386735,121.81790219503455,121.81790219503455,right,0.09090610267594457,114.58016663778108,S4,B-M,2023-01-26_14h04.56.738,knowing_that_K_ONLY,2022.2.5,59.95699201261808,
Does Anna know that the book is here?,Does Anna think that the book is here?,Is the book here?,early,7,per_7,per_K,1,1,1,switch,B-X-O,O-X-B,X-X-B,R,stimuli/blue-R.png,mB-R,m0,stimuli/m0_w0_B-X-O.png,stimuli/m0_wW-R_B-X-O.png,stimuli/m0_none_B-X-O.png,stimuli/mW-R_none_B-X-O.png,stimuli/mB-R_none_B-X-O.png,stimuli/mB-R_none_O-X-B.png,stimuli/mB-R_none_X-X-B.png,stimuli/mW-L_none_X-X-B.png,stimuli/m0_none_X-X-B.png,stimuli/m0_wW-L_X-X-B.png,0,11,11,6,,,,,,,,,121.93477025080938,128.6068384842947,129.34539754176512,129.34539754176512,129.34539754176512,130.23473509086762,130.23473509086762,right,0.5064140838803723,122.97680116211995,S4,B-M,2023-01-26_14h04.56.738,knowing_that_K_ONLY,2022.2.5,59.95699201261808,
Does Anna know that the book is here?,Does Anna think that the book is here?,Is the book here?,early,27,no_9,no_K,0,0,0,hide,X-X-B,O-O-B,X-X-O,L,stimuli/blue-L.png,mB-M,m0,stimuli/m0_w0_X-X-B.png,stimuli/m0_wW-R_X-X-B.png,stimuli/m0_none_X-X-B.png,stimuli/mW-R_none_X-X-B.png,stimuli/mB-M_none_X-X-B.png,stimuli/mB-M_none_O-O-B.png,stimuli/mB-M_none_X-X-O.png,stimuli/mW-L_none_X-X-O.png,stimuli/m0_none_X-X-O.png,stimuli/m0_wW-L_X-X-O.png,0,12,12,26,,,,,,,,,130.76804690912832,137.41931205813307,138.18155244062655,138.18155244062655,138.18155244062655,139.06810125301126,139.06810125301126,right,0.12935781956184655,131.82264686503913,S4,B-M,2023-01-26_14h04.56.738,knowing_that_K_ONLY,2022.2.5,59.95699201261808,
Does Anna know that the book is here?,Does Anna think that the book is here?,Is the book here?,early,26,no_8,no_K,0,0,0,hide,X-B-O,O-B-O,X-O-X,R,stimuli/blue-R.png,mB-L,m0,stimuli/m0_w0_X-B-O.png,stimuli/m0_wW-R_X-B-O.png,stimuli/m0_none_X-B-O.png,stimuli/mW-R_none_X-B-O.png,stimuli/mB-L_none_X-B-O.png,stimuli/mB-L_none_O-B-O.png,stimuli/mB-L_none_X-O-X.png,stimuli/mW-L_none_X-O-X.png,stimuli/m0_none_X-O-X.png,stimuli/m0_wW-L_X-O-X.png,0,13,13,25,,,,,,,,,139.2182137585478,145.89356733101886,146.62739711708855,146.62739711708855,146.62739711708855,147.5182164532598,147.5182164532598,right,0.3023342451779172,140.27287177974358,S4,B-M,2023-01-26_14h04.56.738,knowing_that_K_ONLY,2022.2.5,59.95699201261808,
Does Anna know that the book is here?,Does Anna think that the book is here?,Is the book here?,late,6,per_6,per_K,1,1,1,no,X-B-X,O-B-X,X-B-X,M,stimuli/blue-M.png,mB-L,m0,stimuli/m0_w0_X-B-X.png,stimuli/mW-R_w0_X-B-X.png,stimuli/mB-L_w0_X-B-X.png,stimuli/mB-L_w0_O-B-X.png,stimuli/mB-L_w0_X-B-X.png,stimuli/mW-L_w0_X-B-X.png,stimuli/m0_wW-R_X-B-X.png,stimuli/m0_none_X-B-X.png,stimuli/m0_none_X-B-X.png,stimuli/m0_wW-L_X-B-X.png,0,14,14,5,,,,,,,,,147.851623036433,154.5269634561846,155.2637988413917,155.2637988413917,155.2637988413917,156.15152532001957,156.15152532001957,left,0.2931384394178167,148.89952688035555,S4,B-M,2023-01-26_14h04.56.738,knowing_that_K_ONLY,2022.2.5,59.95699201261808,
Does Anna know that the book is here?,Does Anna think that the book is here?,Is the book here?,late,10,mem_1,mem_K,1,1,1,no,O-X-B,X-X-B,X-X-X,R,stimuli/blue-R.png,mB-M,m0,stimuli/m0_w0_O-X-B.png,stimuli/mW-R_w0_O-X-B.png,stimuli/mB-M_w0_O-X-B.png,stimuli/mB-M_w0_X-X-B.png,stimuli/mB-M_w0_X-X-X.png,stimuli/mW-L_w0_X-X-X.png,stimuli/m0_wW-R_X-X-X.png,stimuli/m0_none_X-X-X.png,stimuli/m0_none_X-X-X.png,stimuli/m0_wW-L_X-X-X.png,0,15,15,9,,,,,,,,,156.4680445351405,163.14072389749344,163.88082248647697,163.88082248647697,163.88082248647697,164.7679882021621,164.7679882021621,left,0.30050823686178774,157.51043378282338,S4,B-M,2023-01-26_14h04.56.738,knowing_that_K_ONLY,2022.2.5,59.95699201261808,
Does Anna know that the book is here?,Does Anna think that the book is here?,Is the book here?,early,20,no_2,no_K,0,0,0,no,X-O-X,O-O-X,X-O-X,L,stimuli/blue-L.png,mB-L,m0,stimuli/m0_w0_X-O-X.png,stimuli/m0_wW-R_X-O-X.png,stimuli/m0_none_X-O-X.png,stimuli/mW-R_none_X-O-X.png,stimuli/mB-L_none_X-O-X.png,stimuli/mB-L_none_O-O-X.png,stimuli/mB-L_none_X-O-X.png,stimuli/mW-L_none_X-O-X.png,stimuli/m0_none_X-O-X.png,stimuli/m0_wW-L_X-O-X.png,0,16,16,19,,,,,,,,,165.084755397751,171.75784346251749,172.49482481298037,172.49482481298037,172.49482481298037,173.38477605744265,173.38477605744265,right,0.23612604814115912,166.14639440365136,S4,B-M,2023-01-26_14h04.56.738,knowing_that_K_ONLY,2022.2.5,59.95699201261808,
Does Anna know that the book is here?,Does Anna think that the book is here?,Is the book here?,late,4,per_4,per_K,1,1,1,no,O-X-B,O-O-B,O-X-B,R,stimuli/blue-R.png,mB-M,m0,stimuli/m0_w0_O-X-B.png,stimuli/mW-R_w0_O-X-B.png,stimuli/mB-M_w0_O-X-B.png,stimuli/mB-M_w0_O-O-B.png,stimuli/mB-M_w0_O-X-B.png,stimuli/mW-L_w0_O-X-B.png,stimuli/m0_wW-R_O-X-B.png,stimuli/m0_none_O-X-B.png,stimuli/m0_none_O-X-B.png,stimuli/m0_wW-L_O-X-B.png,0,17,17,3,,,,,,,,,173.65137775079347,180.3245145776309,181.06449446966872,181.06449446966872,181.06449446966872,181.95102178829256,181.95102178829256,left,0.2856223559938371,174.70639314618893,S4,B-M,2023-01-26_14h04.56.738,knowing_that_K_ONLY,2022.2.5,59.95699201261808,
Does Anna know that the book is here?,Does Anna think that the book is here?,Is the book here?,early,25,no_7,no_K,0,0,0,hide,B-X-X,B-O-O,O-X-X,M,stimuli/blue-M.png,mB-L,m0,stimuli/m0_w0_B-X-X.png,stimuli/m0_wW-R_B-X-X.png,stimuli/m0_none_B-X-X.png,stimuli/mW-R_none_B-X-X.png,stimuli/mB-L_none_B-X-X.png,stimuli/mB-L_none_B-O-O.png,stimuli/mB-L_none_O-X-X.png,stimuli/mW-L_none_O-X-X.png,stimuli/m0_none_O-X-X.png,stimuli/m0_wW-L_O-X-X.png,0,18,18,24,,,,,,,,,182.26770814158954,188.94193056423683,189.6776254964061,189.6776254964061,189.6776254964061,190.5673666151706,190.5673666151706,right,0.2292621562955901,183.32082438562065,S4,B-M,2023-01-26_14h04.56.738,knowing_that_K_ONLY,2022.2.5,59.95699201261808,
Does Anna know that the book is here?,Does Anna think that the book is here?,Is the book here?,early,23,no_5,no_K,0,0,0,no,X-O-X,X-O-O,X-O-X,R,stimuli/blue-R.png,mB-R,m0,stimuli/m0_w0_X-O-X.png,stimuli/m0_wW-R_X-O-X.png,stimuli/m0_none_X-O-X.png,stimuli/mW-R_none_X-O-X.png,stimuli/mB-R_none_X-O-X.png,stimuli/mB-R_none_X-O-O.png,stimuli/mB-R_none_X-O-X.png,stimuli/mW-L_none_X-O-X.png,stimuli/m0_none_X-O-X.png,stimuli/m0_wW-L_X-O-X.png,0,19,19,22,,,,,,,,,190.8183076895075,197.49482224648818,198.23066699353512,198.23066699353512,198.23066699353512,199.11832578270696,199.11832578270696,right,0.2469367739977315,191.8750079398742,S4,B-M,2023-01-26_14h04.56.738,knowing_that_K_ONLY,2022.2.5,59.95699201261808,
Does Anna know that the book is here?,Does Anna think that the book is here?,Is the book here?,late,17,mem_8,mem_K,1,1,1,switch,O-X-B,B-X-O,X-X-O,L,stimuli/blue-L.png,mB-M,m0,stimuli/m0_w0_O-X-B.png,stimuli/mW-R_w0_O-X-B.png,stimuli/mB-M_w0_O-X-B.png,stimuli/mB-M_w0_B-X-O.png,stimuli/mB-M_w0_X-X-O.png,stimuli/mW-L_w0_X-X-O.png,stimuli/m0_wW-R_X-X-O.png,stimuli/m0_none_X-X-O.png,stimuli/m0_none_X-X-O.png,stimuli/m0_wW-L_X-X-O.png,0,20,20,16,,,,,,,,,199.3846759670414,206.05903761798982,206.79567474732175,206.79567474732175,206.79567474732175,207.68502544926014,207.68502544926014,left,0.2962470162892714,200.4463637350127,S4,B-M,2023-01-26_14h04.56.738,knowing_that_K_ONLY,2022.2.5,59.95699201261808,
Does Anna know that the book is here?,Does Anna think that the book is here?,Is the book here?,early,3,per_3,per_K,1,1,1,no,O-B-X,O-B-O,O-B-X,M,stimuli/blue-M.png,mB-R,m0,stimuli/m0_w0_O-B-X.png,stimuli/m0_wW-R_O-B-X.png,stimuli/m0_none_O-B-X.png,stimuli/mW-R_none_O-B-X.png,stimuli/mB-R_none_O-B-X.png,stimuli/mB-R_none_O-B-O.png,stimuli/mB-R_none_O-B-X.png,stimuli/mW-L_none_O-B-X.png,stimuli/m0_none_O-B-X.png,stimuli/m0_wW-L_O-B-X.png,0,21,21,2,,,,,,,,,208.00145836849697,214.65348414052278,215.3908536620438,215.3908536620438,215.3908536620438,216.30143154948018,216.30143154948018,left,0.2964818438049406,209.0647090866696,S4,B-M,2023-01-26_14h04.56.738,knowing_that_K_ONLY,2022.2.5,59.95699201261808,
Does Anna know that the book is here?,Does Anna think that the book is here?,Is the book here?,late,13,mem_4,mem_K,1,1,1,no,B-X-O,B-X-O,X-X-O,L,stimuli/blue-L.png,mB-M,m0,stimuli/m0_w0_B-X-O.png,stimuli/mW-R_w0_B-X-O.png,stimuli/mB-M_w0_B-X-O.png,stimuli/mB-M_w0_B-X-O.png,stimuli/mB-M_w0_X-X-O.png,stimuli/mW-L_w0_X-X-O.png,stimuli/m0_wW-R_X-X-O.png,stimuli/m0_none_X-X-O.png,stimuli/m0_none_X-X-O.png,stimuli/m0_wW-L_X-X-O.png,0,22,22,12,,,,,,,,,216.61809608805925,223.2911498270696,224.03301411343273,224.03301411343273,224.03301411343273,224.91805419127923,224.91805419127923,left,0.4708085273159668,217.6734682158567,S4,B-M,2023-01-26_14h04.56.738,knowing_that_K_ONLY,2022.2.5,59.95699201261808,
Does Anna know that the book is here?,Does Anna think that the book is here?,Is the book here?,early,8,per_8,per_K,1,1,1,switch,O-X-B,B-X-O,B-X-X,L,stimuli/blue-L.png,mB-L,m0,stimuli/m0_w0_O-X-B.png,stimuli/m0_wW-R_O-X-B.png,stimuli/m0_none_O-X-B.png,stimuli/mW-R_none_O-X-B.png,stimuli/mB-L_none_O-X-B.png,stimuli/mB-L_none_B-X-O.png,stimuli/mB-L_none_B-X-X.png,stimuli/mW-L_none_B-X-X.png,stimuli/m0_none_B-X-X.png,stimuli/m0_wW-L_B-X-X.png,0,23,23,7,,,,,,,,,225.418024677434,232.09028667560779,232.82665946357884,232.82665946357884,232.82665946357884,233.71815376845188,233.71815376845188,left,0.3425702661043033,226.47262014215812,S4,B-M,2023-01-26_14h04.56.738,knowing_that_K_ONLY,2022.2.5,59.95699201261808,
Does Anna know that the book is here?,Does Anna think that the book is here?,Is the book here?,late,11,mem_2,mem_K,1,1,1,no,O-B-O,O-B-X,O-X-X,M,stimuli/blue-M.png,mB-L,m0,stimuli/m0_w0_O-B-O.png,stimuli/mW-R_w0_O-B-O.png,stimuli/mB-L_w0_O-B-O.png,stimuli/mB-L_w0_O-B-X.png,stimuli/mB-L_w0_O-X-X.png,stimuli/mW-L_w0_O-X-X.png,stimuli/m0_wW-R_O-X-X.png,stimuli/m0_none_O-X-X.png,stimuli/m0_none_O-X-X.png,stimuli/m0_wW-L_O-X-X.png,0,24,24,10,,,,,,,,,234.0849472376285,240.7575791211566,241.50135827809572,241.50135827809572,241.50135827809572,242.38467243814375,242.38467243814375,left,0.236267201253213,235.14204656647053,S4,B-M,2023-01-26_14h04.56.738,knowing_that_K_ONLY,2022.2.5,59.95699201261808,
Does Anna know that the book is here?,Does Anna think that the book is here?,Is the book here?,early,21,no_3,no_K,0,0,0,no,X-X-O,X-O-O,X-X-O,M,stimuli/blue-M.png,mB-M,m0,stimuli/m0_w0_X-X-O.png,stimuli/m0_wW-R_X-X-O.png,stimuli/m0_none_X-X-O.png,stimuli/mW-R_none_X-X-O.png,stimuli/mB-M_none_X-X-O.png,stimuli/mB-M_none_X-O-O.png,stimuli/mB-M_none_X-X-O.png,stimuli/mW-L_none_X-X-O.png,stimuli/m0_none_X-X-O.png,stimuli/m0_wW-L_X-X-O.png,0,25,25,20,,,,,,,,,242.6513341217069,249.32674030587077,250.06292157468852,250.06292157468852,250.06292157468852,250.95152448595036,250.95152448595036,right,0.2622550966916606,243.71073392569087,S4,B-M,2023-01-26_14h04.56.738,knowing_that_K_ONLY,2022.2.5,59.95699201261808,
Does Anna know that the book is here?,Does Anna think that the book is here?,Is the book here?,early,9,per_9,per_K,1,1,1,switch,X-O-B,X-B-O,X-B-X,M,stimuli/blue-M.png,mB-R,m0,stimuli/m0_w0_X-O-B.png,stimuli/m0_wW-R_X-O-B.png,stimuli/m0_none_X-O-B.png,stimuli/mW-R_none_X-O-B.png,stimuli/mB-R_none_X-O-B.png,stimuli/mB-R_none_X-B-O.png,stimuli/mB-R_none_X-B-X.png,stimuli/mW-L_none_X-B-X.png,stimuli/m0_none_X-B-X.png,stimuli/m0_wW-L_X-B-X.png,0,26,26,8,,,,,,,,,251.23480278020725,257.88689560000785,258.6501548514934,258.6501548514934,258.6501548514934,259.53493540000636,259.53493540000636,left,0.32733952230773866,252.29692716058344,S4,B-M,2023-01-26_14h04.56.738,knowing_that_K_ONLY,2022.2.5,59.95699201261808,
Does Anna know that the book is here?,Does Anna think that the book is here?,Is the book here?,early,1,per_1,per_K,1,1,1,no,B-X-X,B-O-X,B-X-X,L,stimuli/blue-L.png,mB-M,m0,stimuli/m0_w0_B-X-X.png,stimuli/m0_wW-R_B-X-X.png,stimuli/m0_none_B-X-X.png,stimuli/mW-R_none_B-X-X.png,stimuli/mB-M_none_B-X-X.png,stimuli/mB-M_none_B-O-X.png,stimuli/mB-M_none_B-X-X.png,stimuli/mW-L_none_B-X-X.png,stimuli/m0_none_B-X-X.png,stimuli/m0_wW-L_B-X-X.png,0,27,27,0,,,,,,,,,259.8848283481784,266.55645676131826,267.2979643152794,267.2979643152794,267.2979643152794,268.18479447148275,268.18479447148275,left,0.5881924337008968,260.93989892152604,S4,B-M,2023-01-26_14h04.56.738,knowing_that_K_ONLY,2022.2.5,59.95699201261808,
Does Anna know that the book is here?,Does Anna think that the book is here?,Is the book here?,early,23,no_5,no_K,0,0,0,no,X-O-X,X-O-O,X-O-X,R,stimuli/blue-R.png,mB-R,m0,stimuli/m0_w0_X-O-X.png,stimuli/m0_wW-R_X-O-X.png,stimuli/m0_none_X-O-X.png,stimuli/mW-R_none_X-O-X.png,stimuli/mB-R_none_X-O-X.png,stimuli/mB-R_none_X-O-O.png,stimuli/mB-R_none_X-O-X.png,stimuli/mW-L_none_X-O-X.png,stimuli/m0_none_X-O-X.png,stimuli/m0_wW-L_X-O-X.png,1,0,28,22,,,,,,,,,268.8011351278983,275.45356639428064,276.19082299340516,276.19082299340516,276.19082299340516,277.0849395383848,277.0849395383848,right,0.28168963722418994,269.8543017379707,S4,B-M,2023-01-26_14h04.56.738,knowing_that_K_ONLY,2022.2.5,59.95699201261808,
Does Anna know that the book is here?,Does Anna think that the book is here?,Is the book here?,early,28,no_10,no_K,0,0,0,hide,O-B-O,O-B-O,X-O-X,L,stimuli/blue-L.png,mB-M,m0,stimuli/m0_w0_O-B-O.png,stimuli/m0_wW-R_O-B-O.png,stimuli/m0_none_O-B-O.png,stimuli/mW-R_none_O-B-O.png,stimuli/mB-M_none_O-B-O.png,stimuli/mB-M_none_O-B-O.png,stimuli/mB-M_none_X-O-X.png,stimuli/mW-L_none_X-O-X.png,stimuli/m0_none_X-O-X.png,stimuli/m0_wW-L_X-O-X.png,1,1,29,27,,,,,,,,,277.3848065335769,284.03617177309934,284.77826671663206,284.77826671663206,284.77826671663206,285.68493209581356,285.68493209581356,right,0.23245414183475077,278.4418410602957,S4,B-M,2023-01-26_14h04.56.738,knowing_that_K_ONLY,2022.2.5,59.95699201261808,
Does Anna know that the book is here?,Does Anna think that the book is here?,Is the book here?,late,11,mem_2,mem_K,1,1,1,no,O-B-O,O-B-X,O-X-X,M,stimuli/blue-M.png,mB-L,m0,stimuli/m0_w0_O-B-O.png,stimuli/mW-R_w0_O-B-O.png,stimuli/mB-L_w0_O-B-O.png,stimuli/mB-L_w0_O-B-X.png,stimuli/mB-L_w0_O-X-X.png,stimuli/mW-L_w0_O-X-X.png,stimuli/m0_wW-R_O-X-X.png,stimuli/m0_none_O-X-X.png,stimuli/m0_none_O-X-X.png,stimuli/m0_wW-L_O-X-X.png,1,2,30,10,,,,,,,,,285.9348802861059,292.5867491856916,293.3458386453567,293.3458386453567,293.3458386453567,294.23504979826976,294.23504979826976,left,1.0269059897400439,287.0006521916948,S4,B-M,2023-01-26_14h04.56.738,knowing_that_K_ONLY,2022.2.5,59.95699201261808,
Does Anna know that the book is here?,Does Anna think that the book is here?,Is the book here?,late,4,per_4,per_K,1,1,1,no,O-X-B,O-O-B,O-X-B,R,stimuli/blue-R.png,mB-M,m0,stimuli/m0_w0_O-X-B.png,stimuli/mW-R_w0_O-X-B.png,stimuli/mB-M_w0_O-X-B.png,stimuli/mB-M_w0_O-O-B.png,stimuli/mB-M_w0_O-X-B.png,stimuli/mW-L_w0_O-X-B.png,stimuli/m0_wW-R_O-X-B.png,stimuli/m0_none_O-X-B.png,stimuli/m0_none_O-X-B.png,stimuli/m0_wW-L_O-X-B.png,1,3,31,3,,,,,,,,,295.2848964225268,301.9608877506107,302.6995770538924,302.6995770538924,302.6995770538924,303.58484426001087,303.58484426001087,left,0.30036291328724474,296.3484435621649,S4,B-M,2023-01-26_14h04.56.738,knowing_that_K_ONLY,2022.2.5,59.95699201261808,
Does Anna know that the book is here?,Does Anna think that the book is here?,Is the book here?,late,14,mem_5,mem_K,1,1,1,no,O-B-X,O-B-X,O-X-X,M,stimuli/blue-M.png,mB-L,m0,stimuli/m0_w0_O-B-X.png,stimuli/mW-R_w0_O-B-X.png,stimuli/mB-L_w0_O-B-X.png,stimuli/mB-L_w0_O-B-X.png,stimuli/mB-L_w0_O-X-X.png,stimuli/mW-L_w0_O-X-X.png,stimuli/m0_wW-R_O-X-X.png,stimuli/m0_none_O-X-X.png,stimuli/m0_none_O-X-X.png,stimuli/m0_wW-L_O-X-X.png,1,4,32,13,,,,,,,,,303.9014962874353,310.5531220185803,311.3150903604692,311.3150903604692,311.3150903604692,312.2015804660041,312.2015804660041,left,0.3154438422061503,304.95328601286747,S4,B-M,2023-01-26_14h04.56.738,knowing_that_K_ONLY,2022.2.5,59.95699201261808,
Does Anna know that the book is here?,Does Anna think that the book is here?,Is the book here?,late,12,mem_3,mem_K,1,1,1,no,X-O-B,X-O-B,X-O-X,R,stimuli/blue-R.png,mB-M,m0,stimuli/m0_w0_X-O-B.png,stimuli/mW-R_w0_X-O-B.png,stimuli/mB-M_w0_X-O-B.png,stimuli/mB-M_w0_X-O-B.png,stimuli/mB-M_w0_X-O-X.png,stimuli/mW-L_w0_X-O-X.png,stimuli/m0_wW-R_X-O-X.png,stimuli/m0_none_X-O-X.png,stimuli/m0_none_X-O-X.png,stimuli/m0_wW-L_X-O-X.png,1,5,33,11,,,,,,,,,312.5350034101866,319.2075226920424,319.9458619997604,319.9458619997604,319.9458619997604,320.83493905712385,320.83493905712385,right,0.08280230895616114,313.5913170934655,S4,B-M,2023-01-26_14h04.56.738,knowing_that_K_ONLY,2022.2.5,59.95699201261808,
Does Anna know that the book is here?,Does Anna think that the book is here?,Is the book here?,early,8,per_8,per_K,1,1,1,switch,O-X-B,B-X-O,B-X-X,L,stimuli/blue-L.png,mB-L,m0,stimuli/m0_w0_O-X-B.png,stimuli/m0_wW-R_O-X-B.png,stimuli/m0_none_O-X-B.png,stimuli/mW-R_none_O-X-B.png,stimuli/mB-L_none_O-X-B.png,stimuli/mB-L_none_B-X-O.png,stimuli/mB-L_none_B-X-X.png,stimuli/mW-L_none_B-X-X.png,stimuli/m0_none_B-X-X.png,stimuli/m0_wW-L_B-X-X.png,1,6,34,7,,,,,,,,,320.9349181408761,327.6100615877658,328.3481214764761,328.3481214764761,328.3481214764761,329.23497665522154,329.23497665522154,right,1.6676642131060362,321.99582282977644,S4,B-M,2023-01-26_14h04.56.738,knowing_that_K_ONLY,2022.2.5,59.95699201261808,
Does Anna know that the book is here?,Does Anna think that the book is here?,Is the book here?,early,1,per_1,per_K,1,1,1,no,B-X-X,B-O-X,B-X-X,L,stimuli/blue-L.png,mB-M,m0,stimuli/m0_w0_B-X-X.png,stimuli/m0_wW-R_B-X-X.png,stimuli/m0_none_B-X-X.png,stimuli/mW-R_none_B-X-X.png,stimuli/mB-M_none_B-X-X.png,stimuli/mB-M_none_B-O-X.png,stimuli/mB-M_none_B-X-X.png,stimuli/mW-L_none_B-X-X.png,stimuli/m0_none_B-X-X.png,stimuli/m0_wW-L_B-X-X.png,1,7,35,0,,,,,,,,,330.9352588332258,337.5870901987655,338.32778933027294,338.32778933027294,338.32778933027294,339.23511395871174,339.23511395871174,left,0.3058194442419335,331.99987937824335,S4,B-M,2023-01-26_14h04.56.738,knowing_that_K_ONLY,2022.2.5,59.95699201261808,
Does Anna know that the book is here?,Does Anna think that the book is here?,Is the book here?,early,24,no_6,no_K,0,0,0,no,X-X-X,X-X-O,X-X-X,R,stimuli/blue-R.png,mB-R,m0,stimuli/m0_w0_X-X-X.png,stimuli/m0_wW-R_X-X-X.png,stimuli/m0_none_X-X-X.png,stimuli/mW-R_none_X-X-X.png,stimuli/mB-R_none_X-X-X.png,stimuli/mB-R_none_X-X-O.png,stimuli/mB-R_none_X-X-X.png,stimuli/mW-L_none_X-X-X.png,stimuli/m0_none_X-X-X.png,stimuli/m0_wW-L_X-X-X.png,1,8,36,23,,,,,,,,,339.56825427582953,346.21949215675704,346.98086733475793,346.98086733475793,346.98086733475793,347.86816169228405,347.86816169228405,right,0.3620449068257585,340.6277852881467,S4,B-M,2023-01-26_14h04.56.738,knowing_that_K_ONLY,2022.2.5,59.95699201261808,
Does Anna know that the book is here?,Does Anna think that the book is here?,Is the book here?,late,18,mem_9,mem_K,1,1,1,switch,X-O-B,X-B-O,X-X-O,M,stimuli/blue-M.png,mB-L,m0,stimuli/m0_w0_X-O-B.png,stimuli/mW-R_w0_X-O-B.png,stimuli/mB-L_w0_X-O-B.png,stimuli/mB-L_w0_X-B-O.png,stimuli/mB-L_w0_X-X-O.png,stimuli/mW-L_w0_X-X-O.png,stimuli/m0_wW-R_X-X-O.png,stimuli/m0_none_X-X-O.png,stimuli/m0_none_X-X-O.png,stimuli/m0_wW-L_X-X-O.png,1,9,37,17,,,,,,,,,348.251506649307,354.9259221951943,355.6635993664386,355.6635993664386,355.6635993664386,356.5516703869216,356.5516703869216,left,0.30928379122633487,349.3062060540542,S4,B-M,2023-01-26_14h04.56.738,knowing_that_K_ONLY,2022.2.5,59.95699201261808,
Does Anna know that the book is here?,Does Anna think that the book is here?,Is the book here?,early,22,no_4,no_K,0,0,0,no,O-X-X,O-O-X,O-X-X,M,stimuli/blue-M.png,mB-M,m0,stimuli/m0_w0_O-X-X.png,stimuli/m0_wW-R_O-X-X.png,stimuli/m0_none_O-X-X.png,stimuli/mW-R_none_O-X-X.png,stimuli/mB-M_none_O-X-X.png,stimuli/mB-M_none_O-O-X.png,stimuli/mB-M_none_O-X-X.png,stimuli/mW-L_none_O-X-X.png,stimuli/m0_none_O-X-X.png,stimuli/m0_wW-L_O-X-X.png,1,10,38,21,,,,,,,,,356.8852152361069,363.53614995861426,364.2986181108281,364.2986181108281,364.2986181108281,365.1851884169737,365.1851884169737,right,0.49228369316551834,357.93775884760544,S4,B-M,2023-01-26_14h04.56.738,knowing_that_K_ONLY,2022.2.5,59.95699201261808,
Does Anna know that the book is here?,Does Anna think that the book is here?,Is the book here?,late,6,per_6,per_K,1,1,1,no,X-B-X,O-B-X,X-B-X,M,stimuli/blue-M.png,mB-L,m0,stimuli/m0_w0_X-B-X.png,stimuli/mW-R_w0_X-B-X.png,stimuli/mB-L_w0_X-B-X.png,stimuli/mB-L_w0_O-B-X.png,stimuli/mB-L_w0_X-B-X.png,stimuli/mW-L_w0_X-B-X.png,stimuli/m0_wW-R_X-B-X.png,stimuli/m0_none_X-B-X.png,stimuli/m0_none_X-B-X.png,stimuli/m0_wW-L_X-B-X.png,1,11,39,5,,,,,,,,,365.701769097941,372.35459848027676,373.0920642426936,373.0920642426936,373.0920642426936,374.00171821855474,374.00171821855474,left,0.339793398976326,366.7581520745298,S4,B-M,2023-01-26_14h04.56.738,knowing_that_K_ONLY,2022.2.5,59.95699201261808,
Does Anna know that the book is here?,Does Anna think that the book is here?,Is the book here?,early,2,per_2,per_K,1,1,1,no,X-X-B,O-X-B,X-X-B,R,stimuli/blue-R.png,mB-L,m0,stimuli/m0_w0_X-X-B.png,stimuli/m0_wW-R_X-X-B.png,stimuli/m0_none_X-X-B.png,stimuli/mW-R_none_X-X-B.png,stimuli/mB-L_none_X-X-B.png,stimuli/mB-L_none_O-X-B.png,stimuli/mB-L_none_X-X-B.png,stimuli/mW-L_none_X-X-B.png,stimuli/m0_none_X-X-B.png,stimuli/m0_wW-L_X-X-B.png,1,12,40,1,,,,,,,,,374.36843373277225,381.0417931965785,381.7804815375712,381.7804815375712,381.7804815375712,382.6684367483249,382.6684367483249,left,0.3294661226682365,375.431113101542,S4,B-M,2023-01-26_14h04.56.738,knowing_that_K_ONLY,2022.2.5,59.95699201261808,
Does Anna know that the book is here?,Does Anna think that the book is here?,Is the book here?,early,26,no_8,no_K,0,0,0,hide,X-B-O,O-B-O,X-O-X,R,stimuli/blue-R.png,mB-L,m0,stimuli/m0_w0_X-B-O.png,stimuli/m0_wW-R_X-B-O.png,stimuli/m0_none_X-B-O.png,stimuli/mW-R_none_X-B-O.png,stimuli/mB-L_none_X-B-O.png,stimuli/mB-L_none_O-B-O.png,stimuli/mB-L_none_X-O-X.png,stimuli/mW-L_none_X-O-X.png,stimuli/m0_none_X-O-X.png,stimuli/m0_wW-L_X-O-X.png,1,13,41,25,,,,,,,,,383.0183553607203,389.6912955355365,390.4326478210278,390.4326478210278,390.4326478210278,391.31840906315483,391.31840906315483,right,0.2873113815439865,384.0808938971022,S4,B-M,2023-01-26_14h04.56.738,knowing_that_K_ONLY,2022.2.5,59.95699201261808,
Does Anna know that the book is here?,Does Anna think that the book is here?,Is the book here?,late,16,mem_7,mem_K,1,1,1,switch,B-X-O,O-X-B,O-X-X,R,stimuli/blue-R.png,mB-M,m0,stimuli/m0_w0_B-X-O.png,stimuli/mW-R_w0_B-X-O.png,stimuli/mB-M_w0_B-X-O.png,stimuli/mB-M_w0_O-X-B.png,stimuli/mB-M_w0_O-X-X.png,stimuli/mW-L_w0_O-X-X.png,stimuli/m0_wW-R_O-X-X.png,stimuli/m0_none_O-X-X.png,stimuli/m0_none_O-X-X.png,stimuli/m0_wW-L_O-X-X.png,1,14,42,15,,,,,,,,,391.63533730152994,398.28579466976225,399.0477514627855,399.0477514627855,399.0477514627855,399.9349989830516,399.9349989830516,left,0.26335256232414395,392.6925999188097,S4,B-M,2023-01-26_14h04.56.738,knowing_that_K_ONLY,2022.2.5,59.95699201261808,
Does Anna know that the book is here?,Does Anna think that the book is here?,Is the book here?,late,17,mem_8,mem_K,1,1,1,switch,O-X-B,B-X-O,X-X-O,L,stimuli/blue-L.png,mB-M,m0,stimuli/m0_w0_O-X-B.png,stimuli/mW-R_w0_O-X-B.png,stimuli/mB-M_w0_O-X-B.png,stimuli/mB-M_w0_B-X-O.png,stimuli/mB-M_w0_X-X-O.png,stimuli/mW-L_w0_X-X-O.png,stimuli/m0_wW-R_X-X-O.png,stimuli/m0_none_X-X-O.png,stimuli/m0_none_X-X-O.png,stimuli/m0_wW-L_X-X-O.png,1,15,43,16,,,,,,,,,400.2181043648161,406.8933209546376,407.6328257381683,407.6328257381683,407.6328257381683,408.5185276317643,408.5185276317643,left,0.35167496372014284,401.2665320793167,S4,B-M,2023-01-26_14h04.56.738,knowing_that_K_ONLY,2022.2.5,59.95699201261808,
Does Anna know that the book is here?,Does Anna think that the book is here?,Is the book here?,early,7,per_7,per_K,1,1,1,switch,B-X-O,O-X-B,X-X-B,R,stimuli/blue-R.png,mB-R,m0,stimuli/m0_w0_B-X-O.png,stimuli/m0_wW-R_B-X-O.png,stimuli/m0_none_B-X-O.png,stimuli/mW-R_none_B-X-O.png,stimuli/mB-R_none_B-X-O.png,stimuli/mB-R_none_O-X-B.png,stimuli/mB-R_none_X-X-B.png,stimuli/mW-L_none_X-X-B.png,stimuli/m0_none_X-X-B.png,stimuli/m0_wW-L_X-X-B.png,1,16,44,6,,,,,,,,,408.90173849335406,415.57424911356065,416.3125816844404,416.3125816844404,416.3125816844404,417.201792837237,417.201792837237,left,2.299768786993809,409.95847659849096,S4,B-M,2023-01-26_14h04.56.738,knowing_that_K_ONLY,2022.2.5,59.95699201261808,
Does Anna know that the book is here?,Does Anna think that the book is here?,Is the book here?,early,27,no_9,no_K,0,0,0,hide,X-X-B,O-O-B,X-X-O,L,stimuli/blue-L.png,mB-M,m0,stimuli/m0_w0_X-X-B.png,stimuli/m0_wW-R_X-X-B.png,stimuli/m0_none_X-X-B.png,stimuli/mW-R_none_X-X-B.png,stimuli/mB-M_none_X-X-B.png,stimuli/mB-M_none_O-O-B.png,stimuli/mB-M_none_X-X-O.png,stimuli/mW-L_none_X-X-O.png,stimuli/m0_none_X-X-O.png,stimuli/m0_wW-L_X-X-O.png,1,17,45,26,,,,,,,,,419.5184313909849,426.19284597435035,426.91040497482754,426.91040497482754,426.91040497482754,427.8185271184193,427.8185271184193,right,0.30689990730024874,420.5784776122309,S4,B-M,2023-01-26_14h04.56.738,knowing_that_K_ONLY,2022.2.5,59.95699201261808,
Does Anna know that the book is here?,Does Anna think that the book is here?,Is the book here?,early,25,no_7,no_K,0,0,0,hide,B-X-X,B-O-O,O-X-X,M,stimuli/blue-M.png,mB-L,m0,stimuli/m0_w0_B-X-X.png,stimuli/m0_wW-R_B-X-X.png,stimuli/m0_none_B-X-X.png,stimuli/mW-R_none_B-X-X.png,stimuli/mB-L_none_B-X-X.png,stimuli/mB-L_none_B-O-O.png,stimuli/mB-L_none_O-X-X.png,stimuli/mW-L_none_O-X-X.png,stimuli/m0_none_O-X-X.png,stimuli/m0_wW-L_O-X-X.png,1,18,46,24,,,,,,,,,428.1517152352026,434.830462578102,435.5441013710806,435.5441013710806,435.5441013710806,436.45199061208405,436.45199061208405,right,0.1625044244574383,429.21750157675706,S4,B-M,2023-01-26_14h04.56.738,knowing_that_K_ONLY,2022.2.5,59.95699201261808,
Does Anna know that the book is here?,Does Anna think that the book is here?,Is the book here?,late,13,mem_4,mem_K,1,1,1,no,B-X-O,B-X-O,X-X-O,L,stimuli/blue-L.png,mB-M,m0,stimuli/m0_w0_B-X-O.png,stimuli/mW-R_w0_B-X-O.png,stimuli/mB-M_w0_B-X-O.png,stimuli/mB-M_w0_B-X-O.png,stimuli/mB-M_w0_X-X-O.png,stimuli/mW-L_w0_X-X-O.png,stimuli/m0_wW-R_X-X-O.png,stimuli/m0_none_X-X-O.png,stimuli/m0_none_X-X-O.png,stimuli/m0_wW-L_X-X-O.png,1,19,47,12,,,,,,,,,436.63532414857764,443.3096995940432,444.02196086081676,444.02196086081676,444.02196086081676,444.93522739456967,444.93522739456967,right,0.4943807794479653,437.6899715833133,S4,B-M,2023-01-26_14h04.56.738,knowing_that_K_ONLY,2022.2.5,59.95699201261808,
Does Anna know that the book is here?,Does Anna think that the book is here?,Is the book here?,late,5,per_5,per_K,1,1,1,no,X-B-O,O-B-O,X-B-O,M,stimuli/blue-M.png,mB-L,m0,stimuli/m0_w0_X-B-O.png,stimuli/mW-R_w0_X-B-O.png,stimuli/mB-L_w0_X-B-O.png,stimuli/mB-L_w0_O-B-O.png,stimuli/mB-L_w0_X-B-O.png,stimuli/mW-L_w0_X-B-O.png,stimuli/m0_wW-R_X-B-O.png,stimuli/m0_none_X-B-O.png,stimuli/m0_none_X-B-O.png,stimuli/m0_wW-L_X-B-O.png,1,20,48,4,,,,,,,,,445.47596033860464,452.15920244634617,452.8996061186772,452.8996061186772,452.8996061186772,453.78523198200855,453.78523198200855,left,0.2526233203243464,446.5385418625083,S4,B-M,2023-01-26_14h04.56.738,knowing_that_K_ONLY,2022.2.5,59.95699201261808,
Does Anna know that the book is here?,Does Anna think that the book is here?,Is the book here?,early,3,per_3,per_K,1,1,1,no,O-B-X,O-B-O,O-B-X,M,stimuli/blue-M.png,mB-R,m0,stimuli/m0_w0_O-B-X.png,stimuli/m0_wW-R_O-B-X.png,stimuli/m0_none_O-B-X.png,stimuli/mW-R_none_O-B-X.png,stimuli/mB-R_none_O-B-X.png,stimuli/mB-R_none_O-B-O.png,stimuli/mB-R_none_O-B-X.png,stimuli/mW-L_none_O-B-X.png,stimuli/m0_none_O-B-X.png,stimuli/m0_wW-L_O-B-X.png,1,21,49,2,,,,,,,,,454.0683883713791,460.74427319294773,461.47734043118544,461.47734043118544,461.47734043118544,462.3684808907565,462.3684808907565,left,0.33345658576581627,455.1277840049006,S4,B-M,2023-01-26_14h04.56.738,knowing_that_K_ONLY,2022.2.5,59.95699201261808,
Does Anna know that the book is here?,Does Anna think that the book is here?,Is the book here?,late,10,mem_1,mem_K,1,1,1,no,O-X-B,X-X-B,X-X-X,R,stimuli/blue-R.png,mB-M,m0,stimuli/m0_w0_O-X-B.png,stimuli/mW-R_w0_O-X-B.png,stimuli/mB-M_w0_O-X-B.png,stimuli/mB-M_w0_X-X-B.png,stimuli/mB-M_w0_X-X-X.png,stimuli/mW-L_w0_X-X-X.png,stimuli/m0_wW-R_X-X-X.png,stimuli/m0_none_X-X-X.png,stimuli/m0_none_X-X-X.png,stimuli/m0_wW-L_X-X-X.png,1,22,50,9,,,,,,,,,462.71847777895164,469.3912469660863,470.1289472350618,470.1289472350618,470.1289472350618,471.01866268960293,471.01866268960293,right,0.3708281605504453,463.7791460364824,S4,B-M,2023-01-26_14h04.56.738,knowing_that_K_ONLY,2022.2.5,59.95699201261808,
Does Anna know that the book is here?,Does Anna think that the book is here?,Is the book here?,early,19,no_1,no_K,0,0,0,no,X-X-X,O-X-X,X-X-X,L,stimuli/blue-L.png,mB-L,m0,stimuli/m0_w0_X-X-X.png,stimuli/m0_wW-R_X-X-X.png,stimuli/m0_none_X-X-X.png,stimuli/mW-R_none_X-X-X.png,stimuli/mB-L_none_X-X-X.png,stimuli/mB-L_none_O-X-X.png,stimuli/mB-L_none_X-X-X.png,stimuli/mW-L_none_X-X-X.png,stimuli/m0_none_X-X-X.png,stimuli/m0_wW-L_X-X-X.png,1,23,51,18,,,,,,,,,471.4186617913656,478.089693832444,478.8317050464684,478.8317050464684,478.8317050464684,479.7185342402663,479.7185342402663,right,0.26314756949432194,472.480386130861,S4,B-M,2023-01-26_14h04.56.738,knowing_that_K_ONLY,2022.2.5,59.95699201261808,
Does Anna know that the book is here?,Does Anna think that the book is here?,Is the book here?,early,9,per_9,per_K,1,1,1,switch,X-O-B,X-B-O,X-B-X,M,stimuli/blue-M.png,mB-R,m0,stimuli/m0_w0_X-O-B.png,stimuli/m0_wW-R_X-O-B.png,stimuli/m0_none_X-O-B.png,stimuli/mW-R_none_X-O-B.png,stimuli/mB-R_none_X-O-B.png,stimuli/mB-R_none_X-B-O.png,stimuli/mB-R_none_X-B-X.png,stimuli/mW-L_none_X-B-X.png,stimuli/m0_none_X-B-X.png,stimuli/m0_wW-L_X-B-X.png,1,24,52,8,,,,,,,,,480.00184653967153,486.67425257817376,487.413864188944,487.413864188944,487.413864188944,488.30176422174554,488.30176422174554,left,0.2966152976732701,481.0543571084272,S4,B-M,2023-01-26_14h04.56.738,knowing_that_K_ONLY,2022.2.5,59.95699201261808,
Does Anna know that the book is here?,Does Anna think that the book is here?,Is the book here?,early,20,no_2,no_K,0,0,0,no,X-O-X,O-O-X,X-O-X,L,stimuli/blue-L.png,mB-L,m0,stimuli/m0_w0_X-O-X.png,stimuli/m0_wW-R_X-O-X.png,stimuli/m0_none_X-O-X.png,stimuli/mW-R_none_X-O-X.png,stimuli/mB-L_none_X-O-X.png,stimuli/mB-L_none_O-O-X.png,stimuli/mB-L_none_X-O-X.png,stimuli/mW-L_none_X-O-X.png,stimuli/m0_none_X-O-X.png,stimuli/m0_wW-L_X-O-X.png,1,25,53,19,,,,,,,,,488.6184005297255,495.26974491705187,496.0125943882158,496.0125943882158,496.0125943882158,496.9185171093559,496.9185171093559,right,0.5670534691307694,489.66992398910224,S4,B-M,2023-01-26_14h04.56.738,knowing_that_K_ONLY,2022.2.5,59.95699201261808,
Does Anna know that the book is here?,Does Anna think that the book is here?,Is the book here?,early,21,no_3,no_K,0,0,0,no,X-X-O,X-O-O,X-X-O,M,stimuli/blue-M.png,mB-M,m0,stimuli/m0_w0_X-X-O.png,stimuli/m0_wW-R_X-X-O.png,stimuli/m0_none_X-X-O.png,stimuli/mW-R_none_X-X-O.png,stimuli/mB-M_none_X-X-O.png,stimuli/mB-M_none_X-O-O.png,stimuli/mB-M_none_X-X-O.png,stimuli/mW-L_none_X-X-O.png,stimuli/m0_none_X-X-O.png,stimuli/m0_wW-L_X-X-O.png,1,26,54,20,,,,,,,,,497.501821517013,504.1744691198692,504.9139767906163,504.9139767906163,504.9139767906163,505.80177769542206,505.80177769542206,right,0.6834063159767538,498.55908798403107,S4,B-M,2023-01-26_14h04.56.738,knowing_that_K_ONLY,2022.2.5,59.95699201261808,
Does Anna know that the book is here?,Does Anna think that the book is here?,Is the book here?,late,15,mem_6,mem_K,1,1,1,no,X-B-O,X-B-X,X-X-X,M,stimuli/blue-M.png,mB-R,m0,stimuli/m0_w0_X-B-O.png,stimuli/mW-R_w0_X-B-O.png,stimuli/mB-R_w0_X-B-O.png,stimuli/mB-R_w0_X-B-X.png,stimuli/mB-R_w0_X-X-X.png,stimuli/mW-L_w0_X-X-X.png,stimuli/m0_wW-R_X-X-X.png,stimuli/m0_none_X-X-X.png,stimuli/m0_none_X-X-X.png,stimuli/m0_wW-L_X-X-X.png,1,27,55,14,,,,,,,,,506.5021121641621,513.1756201594835,513.9156860266812,513.9156860266812,513.9156860266812,514.801758768037,514.801758768037,left,0.29985444131307304,507.5627047121525,S4,B-M,2023-01-26_14h04.56.738,knowing_that_K_ONLY,2022.2.5,59.95699201261808,
Does Anna know that the book is here?,Does Anna think that the book is here?,Is the book here?,late,5,per_5,per_K,1,1,1,no,X-B-O,O-B-O,X-B-O,M,stimuli/blue-M.png,mB-L,m0,stimuli/m0_w0_X-B-O.png,stimuli/mW-R_w0_X-B-O.png,stimuli/mB-L_w0_X-B-O.png,stimuli/mB-L_w0_O-B-O.png,stimuli/mB-L_w0_X-B-O.png,stimuli/mW-L_w0_X-B-O.png,stimuli/m0_wW-R_X-B-O.png,stimuli/m0_none_X-B-O.png,stimuli/m0_none_X-B-O.png,stimuli/m0_wW-L_X-B-O.png,2,0,56,4,,,,,,,,,515.118597502471,521.7931160259759,522.5340108469827,522.5340108469827,522.5340108469827,523.4187461624388,523.4187461624388,left,0.29075968835968524,516.1804164787754,S4,B-M,2023-01-26_14h04.56.738,knowing_that_K_ONLY,2022.2.5,59.95699201261808,
Does Anna know that the book is here?,Does Anna think that the book is here?,Is the book here?,early,24,no_6,no_K,0,0,0,no,X-X-X,X-X-O,X-X-X,R,stimuli/blue-R.png,mB-R,m0,stimuli/m0_w0_X-X-X.png,stimuli/m0_wW-R_X-X-X.png,stimuli/m0_none_X-X-X.png,stimuli/mW-R_none_X-X-X.png,stimuli/mB-R_none_X-X-X.png,stimuli/mB-R_none_X-X-O.png,stimuli/mB-R_none_X-X-X.png,stimuli/mW-L_none_X-X-X.png,stimuli/m0_none_X-X-X.png,stimuli/m0_wW-L_X-X-X.png,2,1,57,23,,,,,,,,,523.7352342597442,530.4045147188008,531.1453437752789,531.1453437752789,531.1453437752789,532.0352805835428,532.0352805835428,right,0.2986199929146096,524.789953554282,S4,B-M,2023-01-26_14h04.56.738,knowing_that_K_ONLY,2022.2.5,59.95699201261808,
Does Anna know that the book is here?,Does Anna think that the book is here?,Is the book here?,early,8,per_8,per_K,1,1,1,switch,O-X-B,B-X-O,B-X-X,L,stimuli/blue-L.png,mB-L,m0,stimuli/m0_w0_O-X-B.png,stimuli/m0_wW-R_O-X-B.png,stimuli/m0_none_O-X-B.png,stimuli/mW-R_none_O-X-B.png,stimuli/mB-L_none_O-X-B.png,stimuli/mB-L_none_B-X-O.png,stimuli/mB-L_none_B-X-X.png,stimuli/mW-L_none_B-X-X.png,stimuli/m0_none_B-X-X.png,stimuli/m0_wW-L_B-X-X.png,2,2,58,7,,,,,,,,,532.3520387966419,539.0274623041041,539.7652921774425,539.7652921774425,539.7652921774425,540.6513793548802,540.6513793548802,right,1.4024515947094187,533.4069967683172,S4,B-M,2023-01-26_14h04.56.738,knowing_that_K_ONLY,2022.2.5,59.95699201261808,
Does Anna know that the book is here?,Does Anna think that the book is here?,Is the book here?,late,11,mem_2,mem_K,1,1,1,no,O-B-O,O-B-X,O-X-X,M,stimuli/blue-M.png,mB-L,m0,stimuli/m0_w0_O-B-O.png,stimuli/mW-R_w0_O-B-O.png,stimuli/mB-L_w0_O-B-O.png,stimuli/mB-L_w0_O-B-X.png,stimuli/mB-L_w0_O-X-X.png,stimuli/mW-L_w0_O-X-X.png,stimuli/m0_wW-R_O-X-X.png,stimuli/m0_none_O-X-X.png,stimuli/m0_none_O-X-X.png,stimuli/m0_wW-L_O-X-X.png,2,3,59,10,,,,,,,,,542.0853062156821,548.7586242959369,549.4994947359664,549.4994947359664,549.4994947359664,550.3851703237742,550.3851703237742,left,0.32515710254665464,543.1422377647832,S4,B-M,2023-01-26_14h04.56.738,knowing_that_K_ONLY,2022.2.5,59.95699201261808,
Does Anna know that the book is here?,Does Anna think that the book is here?,Is the book here?,early,21,no_3,no_K,0,0,0,no,X-X-O,X-O-O,X-X-O,M,stimuli/blue-M.png,mB-M,m0,stimuli/m0_w0_X-X-O.png,stimuli/m0_wW-R_X-X-O.png,stimuli/m0_none_X-X-O.png,stimuli/mW-R_none_X-X-O.png,stimuli/mB-M_none_X-X-O.png,stimuli/mB-M_none_X-O-O.png,stimuli/mB-M_none_X-X-O.png,stimuli/mW-L_none_X-X-O.png,stimuli/m0_none_X-X-O.png,stimuli/m0_wW-L_X-X-O.png,2,4,60,20,,,,,,,,,550.735304194619,557.4094900458585,558.1478052934399,558.1478052934399,558.1478052934399,559.0355298471404,559.0355298471404,right,0.27366989373695105,551.796078637708,S4,B-M,2023-01-26_14h04.56.738,knowing_that_K_ONLY,2022.2.5,59.95699201261808,
Does Anna know that the book is here?,Does Anna think that the book is here?,Is the book here?,early,22,no_4,no_K,0,0,0,no,O-X-X,O-O-X,O-X-X,M,stimuli/blue-M.png,mB-M,m0,stimuli/m0_w0_O-X-X.png,stimuli/m0_wW-R_O-X-X.png,stimuli/m0_none_O-X-X.png,stimuli/mW-R_none_O-X-X.png,stimuli/mB-M_none_O-X-X.png,stimuli/mB-M_none_O-O-X.png,stimuli/mB-M_none_O-X-X.png,stimuli/mW-L_none_O-X-X.png,stimuli/m0_none_O-X-X.png,stimuli/m0_wW-L_O-X-X.png,2,5,61,21,,,,,,,,,559.3352973936126,565.9864448081935,566.7470529471757,566.7470529471757,566.7470529471757,567.6353494919604,567.6353494919604,right,0.29099419503472745,560.3971458837623,S4,B-M,2023-01-26_14h04.56.738,knowing_that_K_ONLY,2022.2.5,59.95699201261808,
Does Anna know that the book is here?,Does Anna think that the book is here?,Is the book here?,early,26,no_8,no_K,0,0,0,hide,X-B-O,O-B-O,X-O-X,R,stimuli/blue-R.png,mB-L,m0,stimuli/m0_w0_X-B-O.png,stimuli/m0_wW-R_X-B-O.png,stimuli/m0_none_X-B-O.png,stimuli/mW-R_none_X-B-O.png,stimuli/mB-L_none_X-B-O.png,stimuli/mB-L_none_O-B-O.png,stimuli/mB-L_none_X-O-X.png,stimuli/mW-L_none_X-O-X.png,stimuli/m0_none_X-O-X.png,stimuli/m0_wW-L_X-O-X.png,2,6,62,25,,,,,,,,,567.9519806671888,574.6262617968023,575.3655224494869,575.3655224494869,575.3655224494869,576.252077357145,576.252077357145,right,0.5460120284697041,569.0077695174841,S4,B-M,2023-01-26_14h04.56.738,knowing_that_K_ONLY,2022.2.5,59.95699201261808,
Does Anna know that the book is here?,Does Anna think that the book is here?,Is the book here?,early,9,per_9,per_K,1,1,1,switch,X-O-B,X-B-O,X-B-X,M,stimuli/blue-M.png,mB-R,m0,stimuli/m0_w0_X-O-B.png,stimuli/m0_wW-R_X-O-B.png,stimuli/m0_none_X-O-B.png,stimuli/mW-R_none_X-O-B.png,stimuli/mB-R_none_X-O-B.png,stimuli/mB-R_none_X-B-O.png,stimuli/mB-R_none_X-B-X.png,stimuli/mW-L_none_X-B-X.png,stimuli/m0_none_X-B-X.png,stimuli/m0_wW-L_X-B-X.png,2,7,63,8,,,,,,,,,576.8188665275229,583.4941488819895,584.232039066148,584.232039066148,584.232039066148,585.1188085905742,585.1188085905742,left,0.3587807407602668,577.8728588834638,S4,B-M,2023-01-26_14h04.56.738,knowing_that_K_ONLY,2022.2.5,59.95699201261808,
Does Anna know that the book is here?,Does Anna think that the book is here?,Is the book here?,late,15,mem_6,mem_K,1,1,1,no,X-B-O,X-B-X,X-X-X,M,stimuli/blue-M.png,mB-R,m0,stimuli/m0_w0_X-B-O.png,stimuli/mW-R_w0_X-B-O.png,stimuli/mB-R_w0_X-B-O.png,stimuli/mB-R_w0_X-B-X.png,stimuli/mB-R_w0_X-X-X.png,stimuli/mW-L_w0_X-X-X.png,stimuli/m0_wW-R_X-X-X.png,stimuli/m0_none_X-X-X.png,stimuli/m0_none_X-X-X.png,stimuli/m0_wW-L_X-X-X.png,2,8,64,14,,,,,,,,,585.5020239434671,592.1524072062457,592.8914343147771,592.8914343147771,592.8914343147771,593.8022476711776,593.8022476711776,left,0.41913236607797444,586.5599316947628,S4,B-M,2023-01-26_14h04.56.738,knowing_that_K_ONLY,2022.2.5,59.95699201261808,
Does Anna know that the book is here?,Does Anna think that the book is here?,Is the book here?,late,14,mem_5,mem_K,1,1,1,no,O-B-X,O-B-X,O-X-X,M,stimuli/blue-M.png,mB-L,m0,stimuli/m0_w0_O-B-X.png,stimuli/mW-R_w0_O-B-X.png,stimuli/mB-L_w0_O-B-X.png,stimuli/mB-L_w0_O-B-X.png,stimuli/mB-L_w0_O-X-X.png,stimuli/mW-L_w0_O-X-X.png,stimuli/m0_wW-R_O-X-X.png,stimuli/m0_none_O-X-X.png,stimuli/m0_none_O-X-X.png,stimuli/m0_wW-L_O-X-X.png,2,9,65,13,,,,,,,,,594.2519496777095,600.8974621950183,601.6664666997967,601.6664666997967,601.6664666997967,602.5520816558274,602.5520816558274,left,0.4299671520711854,595.3154243159806,S4,B-M,2023-01-26_14h04.56.738,knowing_that_K_ONLY,2022.2.5,59.95699201261808,
Does Anna know that the book is here?,Does Anna think that the book is here?,Is the book here?,early,3,per_3,per_K,1,1,1,no,O-B-X,O-B-O,O-B-X,M,stimuli/blue-M.png,mB-R,m0,stimuli/m0_w0_O-B-X.png,stimuli/m0_wW-R_O-B-X.png,stimuli/m0_none_O-B-X.png,stimuli/mW-R_none_O-B-X.png,stimuli/mB-R_none_O-B-X.png,stimuli/mB-R_none_O-B-O.png,stimuli/mB-R_none_O-B-X.png,stimuli/mW-L_none_O-B-X.png,stimuli/m0_none_O-B-X.png,stimuli/m0_wW-L_O-B-X.png,2,10,66,2,,,,,,,,,603.0021410364425,609.6787085258402,610.415388001129,610.415388001129,610.415388001129,611.3020907987375,611.3020907987375,left,0.3032754799351096,604.0619678286603,S4,B-M,2023-01-26_14h04.56.738,knowing_that_K_ONLY,2022.2.5,59.95699201261808,
Does Anna know that the book is here?,Does Anna think that the book is here?,Is the book here?,early,2,per_2,per_K,1,1,1,no,X-X-B,O-X-B,X-X-B,R,stimuli/blue-R.png,mB-L,m0,stimuli/m0_w0_X-X-B.png,stimuli/m0_wW-R_X-X-B.png,stimuli/m0_none_X-X-B.png,stimuli/mW-R_none_X-X-B.png,stimuli/mB-L_none_X-X-B.png,stimuli/mB-L_none_O-X-B.png,stimuli/mB-L_none_X-X-B.png,stimuli/mW-L_none_X-X-B.png,stimuli/m0_none_X-X-B.png,stimuli/m0_wW-L_X-X-B.png,2,11,67,1,,,,,,,,,611.6355692417128,618.2879738815827,619.050371457357,619.050371457357,619.050371457357,619.9356794053456,619.9356794053456,left,0.35809069441165775,612.6906090180855,S4,B-M,2023-01-26_14h04.56.738,knowing_that_K_ONLY,2022.2.5,59.95699201261808,
Does Anna know that the book is here?,Does Anna think that the book is here?,Is the book here?,late,16,mem_7,mem_K,1,1,1,switch,B-X-O,O-X-B,O-X-X,R,stimuli/blue-R.png,mB-M,m0,stimuli/m0_w0_B-X-O.png,stimuli/mW-R_w0_B-X-O.png,stimuli/mB-M_w0_B-X-O.png,stimuli/mB-M_w0_O-X-B.png,stimuli/mB-M_w0_O-X-X.png,stimuli/mW-L_w0_O-X-X.png,stimuli/m0_wW-R_O-X-X.png,stimuli/m0_none_O-X-X.png,stimuli/m0_none_O-X-X.png,stimuli/m0_wW-L_O-X-X.png,2,12,68,15,,,,,,,,,620.3188132743817,626.9924261721317,627.7322440589778,627.7322440589778,627.7322440589778,628.6187774727587,628.6187774727587,left,0.41863287636078894,621.371763021918,S4,B-M,2023-01-26_14h04.56.738,knowing_that_K_ONLY,2022.2.5,59.95699201261808,
Does Anna know that the book is here?,Does Anna think that the book is here?,Is the book here?,early,7,per_7,per_K,1,1,1,switch,B-X-O,O-X-B,X-X-B,R,stimuli/blue-R.png,mB-R,m0,stimuli/m0_w0_B-X-O.png,stimuli/m0_wW-R_B-X-O.png,stimuli/m0_none_B-X-O.png,stimuli/mW-R_none_B-X-O.png,stimuli/mB-R_none_B-X-O.png,stimuli/mB-R_none_O-X-B.png,stimuli/mB-R_none_X-X-B.png,stimuli/mW-L_none_X-X-B.png,stimuli/m0_none_X-X-B.png,stimuli/m0_wW-L_X-X-B.png,2,13,69,6,,,,,,,,,629.0690585279372,635.7410866610007,636.4834106574999,636.4834106574999,636.4834106574999,637.3690076486673,637.3690076486673,left,0.3168444661423564,630.1268549606903,S4,B-M,2023-01-26_14h04.56.738,knowing_that_K_ONLY,2022.2.5,59.95699201261808,
Does Anna know that the book is here?,Does Anna think that the book is here?,Is the book here?,late,17,mem_8,mem_K,1,1,1,switch,O-X-B,B-X-O,X-X-O,L,stimuli/blue-L.png,mB-M,m0,stimuli/m0_w0_O-X-B.png,stimuli/mW-R_w0_O-X-B.png,stimuli/mB-M_w0_O-X-B.png,stimuli/mB-M_w0_B-X-O.png,stimuli/mB-M_w0_X-X-O.png,stimuli/mW-L_w0_X-X-O.png,stimuli/m0_wW-R_X-X-O.png,stimuli/m0_none_X-X-O.png,stimuli/m0_none_X-X-O.png,stimuli/m0_wW-L_X-X-O.png,2,14,70,16,,,,,,,,,637.7017934789183,644.3744465353666,645.1149749999167,645.1149749999167,645.1149749999167,646.0023187610786,646.0023187610786,left,1.172285053296946,638.740693036234,S4,B-M,2023-01-26_14h04.56.738,knowing_that_K_ONLY,2022.2.5,59.95699201261808,
Does Anna know that the book is here?,Does Anna think that the book is here?,Is the book here?,early,23,no_5,no_K,0,0,0,no,X-O-X,X-O-O,X-O-X,R,stimuli/blue-R.png,mB-R,m0,stimuli/m0_w0_X-O-X.png,stimuli/m0_wW-R_X-O-X.png,stimuli/m0_none_X-O-X.png,stimuli/mW-R_none_X-O-X.png,stimuli/mB-R_none_X-O-X.png,stimuli/mB-R_none_X-O-O.png,stimuli/mB-R_none_X-O-X.png,stimuli/mW-L_none_X-O-X.png,stimuli/m0_none_X-O-X.png,stimuli/m0_wW-L_X-O-X.png,2,15,71,22,,,,,,,,,647.2020141910762,653.8739338929299,654.6140103465877,654.6140103465877,654.6140103465877,655.5023123449646,655.5023123449646,right,0.8800890891579911,648.2658709052484,S4,B-M,2023-01-26_14h04.56.738,knowing_that_K_ONLY,2022.2.5,59.95699201261808,
Does Anna know that the book is here?,Does Anna think that the book is here?,Is the book here?,early,19,no_1,no_K,0,0,0,no,X-X-X,O-X-X,X-X-X,L,stimuli/blue-L.png,mB-L,m0,stimuli/m0_w0_X-X-X.png,stimuli/m0_wW-R_X-X-X.png,stimuli/m0_none_X-X-X.png,stimuli/mW-R_none_X-X-X.png,stimuli/mB-L_none_X-X-X.png,stimuli/mB-L_none_O-X-X.png,stimuli/mB-L_none_X-X-X.png,stimuli/mW-L_none_X-X-X.png,stimuli/m0_none_X-X-X.png,stimuli/m0_wW-L_X-X-X.png,2,16,72,18,,,,,,,,,656.4023326196475,663.0767090276349,663.814000914921,663.814000914921,663.814000914921,664.702330181608,664.702330181608,right,0.303067279048264,657.4560179675464,S4,B-M,2023-01-26_14h04.56.738,knowing_that_K_ONLY,2022.2.5,59.95699201261808,
Does Anna know that the book is here?,Does Anna think that the book is here?,Is the book here?,late,4,per_4,per_K,1,1,1,no,O-X-B,O-O-B,O-X-B,R,stimuli/blue-R.png,mB-M,m0,stimuli/m0_w0_O-X-B.png,stimuli/mW-R_w0_O-X-B.png,stimuli/mB-M_w0_O-X-B.png,stimuli/mB-M_w0_O-O-B.png,stimuli/mB-M_w0_O-X-B.png,stimuli/mW-L_w0_O-X-B.png,stimuli/m0_wW-R_O-X-B.png,stimuli/m0_none_O-X-B.png,stimuli/m0_none_O-X-B.png,stimuli/m0_wW-L_O-X-B.png,2,17,73,3,,,,,,,,,665.035479160375,671.6871818841901,672.4263405216625,672.4263405216625,672.4263405216625,673.3357275899034,673.3357275899034,left,0.28579141886439174,666.0893223431194,S4,B-M,2023-01-26_14h04.56.738,knowing_that_K_ONLY,2022.2.5,59.95699201261808,
Does Anna know that the book is here?,Does Anna think that the book is here?,Is the book here?,early,1,per_1,per_K,1,1,1,no,B-X-X,B-O-X,B-X-X,L,stimuli/blue-L.png,mB-M,m0,stimuli/m0_w0_B-X-X.png,stimuli/m0_wW-R_B-X-X.png,stimuli/m0_none_B-X-X.png,stimuli/mW-R_none_B-X-X.png,stimuli/mB-M_none_B-X-X.png,stimuli/mB-M_none_B-O-X.png,stimuli/mB-M_none_B-X-X.png,stimuli/mW-L_none_B-X-X.png,stimuli/m0_none_B-X-X.png,stimuli/m0_wW-L_B-X-X.png,2,18,74,0,,,,,,,,,673.6520902533084,680.3259427907178,681.0659127378603,681.0659127378603,681.0659127378603,681.9521231035469,681.9521231035469,left,0.4940147437155247,674.7098780245287,S4,B-M,2023-01-26_14h04.56.738,knowing_that_K_ONLY,2022.2.5,59.95699201261808,
Does Anna know that the book is here?,Does Anna think that the book is here?,Is the book here?,late,10,mem_1,mem_K,1,1,1,no,O-X-B,X-X-B,X-X-X,R,stimuli/blue-R.png,mB-M,m0,stimuli/m0_w0_O-X-B.png,stimuli/mW-R_w0_O-X-B.png,stimuli/mB-M_w0_O-X-B.png,stimuli/mB-M_w0_X-X-B.png,stimuli/mB-M_w0_X-X-X.png,stimuli/mW-L_w0_X-X-X.png,stimuli/m0_wW-R_X-X-X.png,stimuli/m0_none_X-X-X.png,stimuli/m0_none_X-X-X.png,stimuli/m0_wW-L_X-X-X.png,2,19,75,9,,,,,,,,,682.4689026820706,689.1400325678987,689.8801619539736,689.8801619539736,689.8801619539736,690.7690609659767,690.7690609659767,right,1.3325634713983163,683.5304576377384,S4,B-M,2023-01-26_14h04.56.738,knowing_that_K_ONLY,2022.2.5,59.95699201261808,
Does Anna know that the book is here?,Does Anna think that the book is here?,Is the book here?,late,6,per_6,per_K,1,1,1,no,X-B-X,O-B-X,X-B-X,M,stimuli/blue-M.png,mB-L,m0,stimuli/m0_w0_X-B-X.png,stimuli/mW-R_w0_X-B-X.png,stimuli/mB-L_w0_X-B-X.png,stimuli/mB-L_w0_O-B-X.png,stimuli/mB-L_w0_X-B-X.png,stimuli/mW-L_w0_X-B-X.png,stimuli/m0_wW-R_X-B-X.png,stimuli/m0_none_X-B-X.png,stimuli/m0_none_X-B-X.png,stimuli/m0_wW-L_X-B-X.png,2,20,76,5,,,,,,,,,692.1188329716679,698.789948421414,699.5334305152064,699.5334305152064,699.5334305152064,700.4189886891982,700.4189886891982,left,0.266518242075108,693.1840960842092,S4,B-M,2023-01-26_14h04.56.738,knowing_that_K_ONLY,2022.2.5,59.95699201261808,
Does Anna know that the book is here?,Does Anna think that the book is here?,Is the book here?,early,28,no_10,no_K,0,0,0,hide,O-B-O,O-B-O,X-O-X,L,stimuli/blue-L.png,mB-M,m0,stimuli/m0_w0_O-B-O.png,stimuli/m0_wW-R_O-B-O.png,stimuli/m0_none_O-B-O.png,stimuli/mW-R_none_O-B-O.png,stimuli/mB-M_none_O-B-O.png,stimuli/mB-M_none_O-B-O.png,stimuli/mB-M_none_X-O-X.png,stimuli/mW-L_none_X-O-X.png,stimuli/m0_none_X-O-X.png,stimuli/m0_wW-L_X-O-X.png,2,21,77,27,,,,,,,,,700.7021967277396,707.3773052070756,708.1144552996848,708.1144552996848,708.1144552996848,709.0024124353658,709.0024124353658,right,0.28357916441746056,701.7557008221047,S4,B-M,2023-01-26_14h04.56.738,knowing_that_K_ONLY,2022.2.5,59.95699201261808,
Does Anna know that the book is here?,Does Anna think that the book is here?,Is the book here?,late,12,mem_3,mem_K,1,1,1,no,X-O-B,X-O-B,X-O-X,R,stimuli/blue-R.png,mB-M,m0,stimuli/m0_w0_X-O-B.png,stimuli/mW-R_w0_X-O-B.png,stimuli/mB-M_w0_X-O-B.png,stimuli/mB-M_w0_X-O-B.png,stimuli/mB-M_w0_X-O-X.png,stimuli/mW-L_w0_X-O-X.png,stimuli/m0_wW-R_X-O-X.png,stimuli/m0_none_X-O-X.png,stimuli/m0_none_X-O-X.png,stimuli/m0_wW-L_X-O-X.png,2,22,78,11,,,,,,,,,709.3023073404329,715.9745382207911,716.6911960868165,716.6911960868165,716.6911960868165,717.6022705765208,717.6022705765208,left,0.30761593859642744,710.3571754874429,S4,B-M,2023-01-26_14h04.56.738,knowing_that_K_ONLY,2022.2.5,59.95699201261808,
Does Anna know that the book is here?,Does Anna think that the book is here?,Is the book here?,early,27,no_9,no_K,0,0,0,hide,X-X-B,O-O-B,X-X-O,L,stimuli/blue-L.png,mB-M,m0,stimuli/m0_w0_X-X-B.png,stimuli/m0_wW-R_X-X-B.png,stimuli/m0_none_X-X-B.png,stimuli/mW-R_none_X-X-B.png,stimuli/mB-M_none_X-X-B.png,stimuli/mB-M_none_O-O-B.png,stimuli/mB-M_none_X-X-O.png,stimuli/mW-L_none_X-X-O.png,stimuli/m0_none_X-X-O.png,stimuli/m0_wW-L_X-X-O.png,2,23,79,26,,,,,,,,,717.9355623123702,724.610134409857,725.3258407755056,725.3258407755056,725.3258407755056,726.2358742607757,726.2358742607757,right,0.6429704350885004,718.9980633149389,S4,B-M,2023-01-26_14h04.56.738,knowing_that_K_ONLY,2022.2.5,59.95699201261808,
Does Anna know that the book is here?,Does Anna think that the book is here?,Is the book here?,early,20,no_2,no_K,0,0,0,no,X-O-X,O-O-X,X-O-X,L,stimuli/blue-L.png,mB-L,m0,stimuli/m0_w0_X-O-X.png,stimuli/m0_wW-R_X-O-X.png,stimuli/m0_none_X-O-X.png,stimuli/mW-R_none_X-O-X.png,stimuli/mB-L_none_X-O-X.png,stimuli/mB-L_none_O-O-X.png,stimuli/mB-L_none_X-O-X.png,stimuli/mW-L_none_X-O-X.png,stimuli/m0_none_X-O-X.png,stimuli/m0_wW-L_X-O-X.png,2,24,80,19,,,,,,,,,726.9022363788681,733.5770564568229,734.315444847336,734.315444847336,734.315444847336,735.2021954444936,735.2021954444936,right,0.2850105855613947,727.962543733418,S4,B-M,2023-01-26_14h04.56.738,knowing_that_K_ONLY,2022.2.5,59.95699201261808,
Does Anna know that the book is here?,Does Anna think that the book is here?,Is the book here?,late,13,mem_4,mem_K,1,1,1,no,B-X-O,B-X-O,X-X-O,L,stimuli/blue-L.png,mB-M,m0,stimuli/m0_w0_B-X-O.png,stimuli/mW-R_w0_B-X-O.png,stimuli/mB-M_w0_B-X-O.png,stimuli/mB-M_w0_B-X-O.png,stimuli/mB-M_w0_X-X-O.png,stimuli/mW-L_w0_X-X-O.png,stimuli/m0_wW-R_X-X-O.png,stimuli/m0_none_X-X-O.png,stimuli/m0_none_X-X-O.png,stimuli/m0_wW-L_X-X-O.png,2,25,81,12,,,,,,,,,735.5189199732849,742.1703468068736,742.9097008131212,742.9097008131212,742.9097008131212,743.8191687235376,743.8191687235376,right,0.4183242643484846,736.5756847050507,S4,B-M,2023-01-26_14h04.56.738,knowing_that_K_ONLY,2022.2.5,59.95699201261808,
Does Anna know that the book is here?,Does Anna think that the book is here?,Is the book here?,late,18,mem_9,mem_K,1,1,1,switch,X-O-B,X-B-O,X-X-O,M,stimuli/blue-M.png,mB-L,m0,stimuli/m0_w0_X-O-B.png,stimuli/mW-R_w0_X-O-B.png,stimuli/mB-L_w0_X-O-B.png,stimuli/mB-L_w0_X-B-O.png,stimuli/mB-L_w0_X-X-O.png,stimuli/mW-L_w0_X-X-O.png,stimuli/m0_wW-R_X-X-O.png,stimuli/m0_none_X-X-O.png,stimuli/m0_none_X-X-O.png,stimuli/m0_wW-L_X-X-O.png,2,26,82,17,,,,,,,,,744.2689506099559,750.9420656220755,751.6583426954458,751.6583426954458,751.6583426954458,752.5689844224835,752.5689844224835,right,0.3408757868455723,745.3244757605717,S4,B-M,2023-01-26_14h04.56.738,knowing_that_K_ONLY,2022.2.5,59.95699201261808,
Does Anna know that the book is here?,Does Anna think that the book is here?,Is the book here?,early,25,no_7,no_K,0,0,0,hide,B-X-X,B-O-O,O-X-X,M,stimuli/blue-M.png,mB-L,m0,stimuli/m0_w0_B-X-X.png,stimuli/m0_wW-R_B-X-X.png,stimuli/m0_none_B-X-X.png,stimuli/mW-R_none_B-X-X.png,stimuli/mB-L_none_B-X-X.png,stimuli/mB-L_none_B-O-O.png,stimuli/mB-L_none_O-X-X.png,stimuli/mW-L_none_O-X-X.png,stimuli/m0_none_O-X-X.png,stimuli/m0_wW-L_O-X-X.png,2,27,83,24,,,,,,,,,752.9355068135774,759.6095659477869,760.3485134971561,760.3485134971561,760.3485134971561,761.2356753632193,761.2356753632193,right,0.843426808831282,753.9921214097412,S4,B-M,2023-01-26_14h04.56.738,knowing_that_K_ONLY,2022.2.5,59.95699201261808,
