K_text,B_text,T_text,Anna_exit,trial_num,trial_code,cond,K_hit,B_hit,T_hit,book_move,start_shelf,mid_shelf,end_shelf,rectangle,rectangle_path,Todd_mid,Todd_final,frame_1,frame_2,frame_3,frame_4,frame_5,frame_6,frame_7,frame_8,frame_9,frame_10,trials.thisRepN,trials.thisTrialN,trials.thisN,trials.thisIndex,frames.thisRepN,frames.thisTrialN,frames.thisN,frames.thisIndex,sessionInst.started,startSession.started,startSession.keys,startSession.rt,crossText.started,movingImage.started,staticImage.started,promptText3.started,rectImage.started,respText.started,keyResp.started,keyResp.keys,keyResp.rt,crossText.stopped,subject,session,date,expName,psychopyVersion,frameRate,
,,,,,,,,,,,,,,,,,,,,,,,,,,,,,,,,,,,,25.693283228203654,25.693283228203654,left,6.159191970829852,,,,,,,,,,,S4,K-M,2023-01-26_13h38.44.480,knowing_that_K_ONLY,2022.2.5,60.00130887670209,
Does Anna know that the book is here?,Does Anna think that the book is here?,Is the book here?,late,11,mem_2,mem_K,1,1,1,no,O-B-O,O-B-X,O-X-X,M,stimuli/blue-M.png,mB-L,m0,stimuli/m0_w0_O-B-O.png,stimuli/mW-R_w0_O-B-O.png,stimuli/mB-L_w0_O-B-O.png,stimuli/mB-L_w0_O-B-X.png,stimuli/mB-L_w0_O-X-X.png,stimuli/mW-L_w0_O-X-X.png,stimuli/m0_wW-R_O-X-X.png,stimuli/m0_none_O-X-X.png,stimuli/m0_none_O-X-X.png,stimuli/m0_wW-L_O-X-X.png,0,0,0,10,,,,,,,,,31.91906953137368,38.55659887683578,39.31526102742646,39.31526102742646,39.31526102742646,40.18285682389978,40.18285682389978,right,1.3494468227727339,,S4,K-M,2023-01-26_13h38.44.480,knowing_that_K_ONLY,2022.2.5,60.00130887670209,
Does Anna know that the book is here?,Does Anna think that the book is here?,Is the book here?,late,17,mem_8,mem_K,1,1,1,switch,O-X-B,B-X-O,X-X-O,L,stimuli/blue-L.png,mB-M,m0,stimuli/m0_w0_O-X-B.png,stimuli/mW-R_w0_O-X-B.png,stimuli/mB-M_w0_O-X-B.png,stimuli/mB-M_w0_B-X-O.png,stimuli/mB-M_w0_X-X-O.png,stimuli/mW-L_w0_X-X-O.png,stimuli/m0_wW-R_X-X-O.png,stimuli/m0_none_X-X-O.png,stimuli/m0_none_X-X-O.png,stimuli/m0_wW-L_X-X-O.png,0,1,1,16,,,,,,,,,41.54955982672982,48.224671193398535,48.96663524932228,48.96663524932228,48.96663524932228,49.84955770953093,49.84955770953093,right,0.3233982956735417,42.613471718970686,S4,K-M,2023-01-26_13h38.44.480,knowing_that_K_ONLY,2022.2.5,60.00130887670209,
Does Anna know that the book is here?,Does Anna think that the book is here?,Is the book here?,late,18,mem_9,mem_K,1,1,1,switch,X-O-B,X-B-O,X-X-O,M,stimuli/blue-M.png,mB-L,m0,stimuli/m0_w0_X-O-B.png,stimuli/mW-R_w0_X-O-B.png,stimuli/mB-L_w0_X-O-B.png,stimuli/mB-L_w0_X-B-O.png,stimuli/mB-L_w0_X-X-O.png,stimuli/mW-L_w0_X-X-O.png,stimuli/m0_wW-R_X-X-O.png,stimuli/m0_none_X-X-O.png,stimuli/m0_none_X-X-O.png,stimuli/m0_wW-L_X-X-O.png,0,2,2,17,,,,,,,,,50.199564863345586,56.876952965860255,57.61456116451882,57.61456116451882,57.61456116451882,58.49970004952047,58.49970004952047,right,0.14550653321202844,51.251762649742886,S4,K-M,2023-01-26_13h38.44.480,knowing_that_K_ONLY,2022.2.5,60.00130887670209,
Does Anna know that the book is here?,Does Anna think that the book is here?,Is the book here?,early,22,no_4,no_K,0,0,0,no,O-X-X,O-O-X,O-X-X,M,stimuli/blue-M.png,mB-M,m0,stimuli/m0_w0_O-X-X.png,stimuli/m0_wW-R_O-X-X.png,stimuli/m0_none_O-X-X.png,stimuli/mW-R_none_O-X-X.png,stimuli/mB-M_none_O-X-X.png,stimuli/mB-M_none_O-O-X.png,stimuli/mB-M_none_O-X-X.png,stimuli/mW-L_none_O-X-X.png,stimuli/m0_none_O-X-X.png,stimuli/m0_wW-L_O-X-X.png,0,3,3,21,,,,,,,,,58.66622738097794,65.34313331719022,66.07846381759737,66.07846381759737,66.07846381759737,66.96631637157407,66.96631637157407,right,0.3258476232877001,59.720605983166024,S4,K-M,2023-01-26_13h38.44.480,knowing_that_K_ONLY,2022.2.5,60.00130887670209,
Does Anna know that the book is here?,Does Anna think that the book is here?,Is the book here?,early,1,per_1,per_K,1,1,1,no,B-X-X,B-O-X,B-X-X,L,stimuli/blue-L.png,mB-M,m0,stimuli/m0_w0_B-X-X.png,stimuli/m0_wW-R_B-X-X.png,stimuli/m0_none_B-X-X.png,stimuli/mW-R_none_B-X-X.png,stimuli/mB-M_none_B-X-X.png,stimuli/mB-M_none_B-O-X.png,stimuli/mB-M_none_B-X-X.png,stimuli/mW-L_none_B-X-X.png,stimuli/m0_none_B-X-X.png,stimuli/m0_wW-L_B-X-X.png,0,4,4,0,,,,,,,,,67.31628438760526,73.99056936684065,74.73196303576697,74.73196303576697,74.73196303576697,75.61626045568846,75.61626045568846,left,0.25209222501143813,68.35737695137504,S4,K-M,2023-01-26_13h38.44.480,knowing_that_K_ONLY,2022.2.5,60.00130887670209,
Does Anna know that the book is here?,Does Anna think that the book is here?,Is the book here?,early,3,per_3,per_K,1,1,1,no,O-B-X,O-B-O,O-B-X,M,stimuli/blue-M.png,mB-R,m0,stimuli/m0_w0_O-B-X.png,stimuli/m0_wW-R_O-B-X.png,stimuli/m0_none_O-B-X.png,stimuli/mW-R_none_O-B-X.png,stimuli/mB-R_none_O-B-X.png,stimuli/mB-R_none_O-B-O.png,stimuli/mB-R_none_O-B-X.png,stimuli/mW-L_none_O-B-X.png,stimuli/m0_none_O-B-X.png,stimuli/m0_wW-L_O-B-X.png,0,5,5,2,,,,,,,,,75.8996943392558,82.57404187496286,83.31088335555978,83.31088335555978,83.31088335555978,84.19968388113193,84.19968388113193,left,0.532280548941344,76.9608351389179,S4,K-M,2023-01-26_13h38.44.480,knowing_that_K_ONLY,2022.2.5,60.00130887670209,
Does Anna know that the book is here?,Does Anna think that the book is here?,Is the book here?,late,10,mem_1,mem_K,1,1,1,no,O-X-B,X-X-B,X-X-X,R,stimuli/blue-R.png,mB-M,m0,stimuli/m0_w0_O-X-B.png,stimuli/mW-R_w0_O-X-B.png,stimuli/mB-M_w0_O-X-B.png,stimuli/mB-M_w0_X-X-B.png,stimuli/mB-M_w0_X-X-X.png,stimuli/mW-L_w0_X-X-X.png,stimuli/m0_wW-R_X-X-X.png,stimuli/m0_none_X-X-X.png,stimuli/m0_none_X-X-X.png,stimuli/m0_wW-L_X-X-X.png,0,6,6,9,,,,,,,,,84.74950516200624,91.42611788469367,92.16322242328897,92.16322242328897,92.16322242328897,93.04942380648572,93.04942380648572,right,0.5630945983575657,85.8134096757276,S4,K-M,2023-01-26_13h38.44.480,knowing_that_K_ONLY,2022.2.5,60.00130887670209,
Does Anna know that the book is here?,Does Anna think that the book is here?,Is the book here?,early,21,no_3,no_K,0,0,0,no,X-X-O,X-O-O,X-X-O,M,stimuli/blue-M.png,mB-M,m0,stimuli/m0_w0_X-X-O.png,stimuli/m0_wW-R_X-X-O.png,stimuli/m0_none_X-X-O.png,stimuli/mW-R_none_X-X-O.png,stimuli/mB-M_none_X-X-O.png,stimuli/mB-M_none_X-O-O.png,stimuli/mB-M_none_X-X-O.png,stimuli/mW-L_none_X-X-O.png,stimuli/m0_none_X-X-O.png,stimuli/m0_wW-L_X-X-O.png,0,7,7,20,,,,,,,,,93.63300025474746,100.30596737691667,101.04592064244207,101.04592064244207,101.04592064244207,101.93302123516332,101.93302123516332,right,0.3270878460025415,94.68501582520548,S4,K-M,2023-01-26_13h38.44.480,knowing_that_K_ONLY,2022.2.5,60.00130887670209,
Does Anna know that the book is here?,Does Anna think that the book is here?,Is the book here?,late,12,mem_3,mem_K,1,1,1,no,X-O-B,X-O-B,X-O-X,R,stimuli/blue-R.png,mB-M,m0,stimuli/m0_w0_X-O-B.png,stimuli/mW-R_w0_X-O-B.png,stimuli/mB-M_w0_X-O-B.png,stimuli/mB-M_w0_X-O-B.png,stimuli/mB-M_w0_X-O-X.png,stimuli/mW-L_w0_X-O-X.png,stimuli/m0_wW-R_X-O-X.png,stimuli/m0_none_X-O-X.png,stimuli/m0_none_X-O-X.png,stimuli/m0_wW-L_X-O-X.png,0,8,8,11,,,,,,,,,102.28293214831501,108.95720461616293,109.67362572986167,109.67362572986167,109.67362572986167,110.58295986568555,110.58295986568555,right,0.31810601567849517,103.33160784316715,S4,K-M,2023-01-26_13h38.44.480,knowing_that_K_ONLY,2022.2.5,60.00130887670209,
Does Anna know that the book is here?,Does Anna think that the book is here?,Is the book here?,early,25,no_7,no_K,0,0,0,hide,B-X-X,B-O-O,O-X-X,M,stimuli/blue-M.png,mB-L,m0,stimuli/m0_w0_B-X-X.png,stimuli/m0_wW-R_B-X-X.png,stimuli/m0_none_B-X-X.png,stimuli/mW-R_none_B-X-X.png,stimuli/mB-L_none_B-X-X.png,stimuli/mB-L_none_B-O-O.png,stimuli/mB-L_none_O-X-X.png,stimuli/mW-L_none_O-X-X.png,stimuli/m0_none_O-X-X.png,stimuli/m0_wW-L_O-X-X.png,0,9,9,24,,,,,,,,,110.93267348525114,117.61044622992631,118.34591531706974,118.34591531706974,118.34591531706974,119.23295688221697,119.23295688221697,right,0.5321929699275643,111.98312931356486,S4,K-M,2023-01-26_13h38.44.480,knowing_that_K_ONLY,2022.2.5,60.00130887670209,
Does Anna know that the book is here?,Does Anna think that the book is here?,Is the book here?,early,7,per_7,per_K,1,1,1,switch,B-X-O,O-X-B,X-X-B,R,stimuli/blue-R.png,mB-R,m0,stimuli/m0_w0_B-X-O.png,stimuli/m0_wW-R_B-X-O.png,stimuli/m0_none_B-X-O.png,stimuli/mW-R_none_B-X-O.png,stimuli/mB-R_none_B-X-O.png,stimuli/mB-R_none_O-X-B.png,stimuli/mB-R_none_X-X-B.png,stimuli/mW-L_none_X-X-B.png,stimuli/m0_none_X-X-B.png,stimuli/m0_wW-L_X-X-B.png,0,10,10,6,,,,,,,,,119.78295909566805,126.45840922987554,127.1933817146346,127.1933817146346,127.1933817146346,128.08308305381797,128.08308305381797,left,0.2733659266959876,120.84562146198004,S4,K-M,2023-01-26_13h38.44.480,knowing_that_K_ONLY,2022.2.5,60.00130887670209,
Does Anna know that the book is here?,Does Anna think that the book is here?,Is the book here?,early,2,per_2,per_K,1,1,1,no,X-X-B,O-X-B,X-X-B,R,stimuli/blue-R.png,mB-L,m0,stimuli/m0_w0_X-X-B.png,stimuli/m0_wW-R_X-X-B.png,stimuli/m0_none_X-X-B.png,stimuli/mW-R_none_X-X-B.png,stimuli/mB-L_none_X-X-B.png,stimuli/mB-L_none_O-X-B.png,stimuli/mB-L_none_X-X-B.png,stimuli/mW-L_none_X-X-B.png,stimuli/m0_none_X-X-B.png,stimuli/m0_wW-L_X-X-B.png,0,11,11,1,,,,,,,,,128.3822583988076,135.05590113124344,135.79344549018424,135.79344549018424,135.79344549018424,136.66643686511088,136.66643686511088,left,0.2656435671960935,129.4457073728554,S4,K-M,2023-01-26_13h38.44.480,knowing_that_K_ONLY,2022.2.5,60.00130887670209,
Does Anna know that the book is here?,Does Anna think that the book is here?,Is the book here?,late,5,per_5,per_K,1,1,1,no,X-B-O,O-B-O,X-B-O,M,stimuli/blue-M.png,mB-L,m0,stimuli/m0_w0_X-B-O.png,stimuli/mW-R_w0_X-B-O.png,stimuli/mB-L_w0_X-B-O.png,stimuli/mB-L_w0_O-B-O.png,stimuli/mB-L_w0_X-B-O.png,stimuli/mW-L_w0_X-B-O.png,stimuli/m0_wW-R_X-B-O.png,stimuli/m0_none_X-B-O.png,stimuli/m0_none_X-B-O.png,stimuli/m0_wW-L_X-B-O.png,0,12,12,4,,,,,,,,,136.94959004642442,143.6228125274647,144.36078259139322,144.36078259139322,144.36078259139322,145.2495000291383,145.2495000291383,left,0.4424702652031556,138.00281183456536,S4,K-M,2023-01-26_13h38.44.480,knowing_that_K_ONLY,2022.2.5,60.00130887670209,
Does Anna know that the book is here?,Does Anna think that the book is here?,Is the book here?,early,9,per_9,per_K,1,1,1,switch,X-O-B,X-B-O,X-B-X,M,stimuli/blue-M.png,mB-R,m0,stimuli/m0_w0_X-O-B.png,stimuli/m0_wW-R_X-O-B.png,stimuli/m0_none_X-O-B.png,stimuli/mW-R_none_X-O-B.png,stimuli/mB-R_none_X-O-B.png,stimuli/mB-R_none_X-B-O.png,stimuli/mB-R_none_X-B-X.png,stimuli/mW-L_none_X-B-X.png,stimuli/m0_none_X-B-X.png,stimuli/m0_wW-L_X-B-X.png,0,13,13,8,,,,,,,,,145.71603358420543,152.38937540375628,153.12934823823161,153.12934823823161,153.12934823823161,154.01625891588628,154.01625891588628,left,0.3405878597404808,146.7655825036345,S4,K-M,2023-01-26_13h38.44.480,knowing_that_K_ONLY,2022.2.5,60.00130887670209,
Does Anna know that the book is here?,Does Anna think that the book is here?,Is the book here?,early,20,no_2,no_K,0,0,0,no,X-O-X,O-O-X,X-O-X,L,stimuli/blue-L.png,mB-L,m0,stimuli/m0_w0_X-O-X.png,stimuli/m0_wW-R_X-O-X.png,stimuli/m0_none_X-O-X.png,stimuli/mW-R_none_X-O-X.png,stimuli/mB-L_none_X-O-X.png,stimuli/mB-L_none_O-O-X.png,stimuli/mB-L_none_X-O-X.png,stimuli/mW-L_none_X-O-X.png,stimuli/m0_none_X-O-X.png,stimuli/m0_wW-L_X-O-X.png,0,14,14,19,,,,,,,,,154.3829192520352,161.05477992619853,161.7922331772279,161.7922331772279,161.7922331772279,162.68269096896984,162.68269096896984,right,0.28177384135778993,155.44160238315817,S4,K-M,2023-01-26_13h38.44.480,knowing_that_K_ONLY,2022.2.5,60.00130887670209,
Does Anna know that the book is here?,Does Anna think that the book is here?,Is the book here?,late,14,mem_5,mem_K,1,1,1,no,O-B-X,O-B-X,O-X-X,M,stimuli/blue-M.png,mB-L,m0,stimuli/m0_w0_O-B-X.png,stimuli/mW-R_w0_O-B-X.png,stimuli/mB-L_w0_O-B-X.png,stimuli/mB-L_w0_O-B-X.png,stimuli/mB-L_w0_O-X-X.png,stimuli/mW-L_w0_O-X-X.png,stimuli/m0_wW-R_O-X-X.png,stimuli/m0_none_O-X-X.png,stimuli/m0_none_O-X-X.png,stimuli/m0_wW-L_O-X-X.png,0,15,15,13,,,,,,,,,162.98274210491218,169.65626164909918,170.39351504016668,170.39351504016668,170.39351504016668,171.2830710557755,171.2830710557755,right,0.34628659673035145,164.03092408459634,S4,K-M,2023-01-26_13h38.44.480,knowing_that_K_ONLY,2022.2.5,60.00130887670209,
Does Anna know that the book is here?,Does Anna think that the book is here?,Is the book here?,late,13,mem_4,mem_K,1,1,1,no,B-X-O,B-X-O,X-X-O,L,stimuli/blue-L.png,mB-M,m0,stimuli/m0_w0_B-X-O.png,stimuli/mW-R_w0_B-X-O.png,stimuli/mB-M_w0_B-X-O.png,stimuli/mB-M_w0_B-X-O.png,stimuli/mB-M_w0_X-X-O.png,stimuli/mW-L_w0_X-X-O.png,stimuli/m0_wW-R_X-X-O.png,stimuli/m0_none_X-X-O.png,stimuli/m0_none_X-X-O.png,stimuli/m0_wW-L_X-X-O.png,0,16,16,12,,,,,,,,,171.64971888065338,178.32089175411966,179.06257318309508,179.06257318309508,179.06257318309508,179.94972093380056,179.94972093380056,right,0.24693756934721023,172.70961657038424,S4,K-M,2023-01-26_13h38.44.480,knowing_that_K_ONLY,2022.2.5,60.00130887670209,
Does Anna know that the book is here?,Does Anna think that the book is here?,Is the book here?,early,28,no_10,no_K,0,0,0,hide,O-B-O,O-B-O,X-O-X,L,stimuli/blue-L.png,mB-M,m0,stimuli/m0_w0_O-B-O.png,stimuli/m0_wW-R_O-B-O.png,stimuli/m0_none_O-B-O.png,stimuli/mW-R_none_O-B-O.png,stimuli/mB-M_none_O-B-O.png,stimuli/mB-M_none_O-B-O.png,stimuli/mB-M_none_X-O-X.png,stimuli/mW-L_none_X-O-X.png,stimuli/m0_none_X-O-X.png,stimuli/m0_wW-L_X-O-X.png,0,17,17,27,,,,,,,,,180.21634251705837,186.88569804397412,187.63035876629874,187.63035876629874,187.63035876629874,188.51633751252666,188.51633751252666,right,0.2729976453119889,181.26935546274763,S4,K-M,2023-01-26_13h38.44.480,knowing_that_K_ONLY,2022.2.5,60.00130887670209,
Does Anna know that the book is here?,Does Anna think that the book is here?,Is the book here?,early,27,no_9,no_K,0,0,0,hide,X-X-B,O-O-B,X-X-O,L,stimuli/blue-L.png,mB-M,m0,stimuli/m0_w0_X-X-B.png,stimuli/m0_wW-R_X-X-B.png,stimuli/m0_none_X-X-B.png,stimuli/mW-R_none_X-X-B.png,stimuli/mB-M_none_X-X-B.png,stimuli/mB-M_none_O-O-B.png,stimuli/mB-M_none_X-X-O.png,stimuli/mW-L_none_X-X-O.png,stimuli/m0_none_X-X-O.png,stimuli/m0_wW-L_X-X-O.png,0,18,18,26,,,,,,,,,188.8163697210839,195.48978179646656,196.22704128280748,196.22704128280748,196.22704128280748,197.11642823542934,197.11642823542934,right,0.3035325964447111,189.8710100982571,S4,K-M,2023-01-26_13h38.44.480,knowing_that_K_ONLY,2022.2.5,60.00130887670209,
Does Anna know that the book is here?,Does Anna think that the book is here?,Is the book here?,early,23,no_5,no_K,0,0,0,no,X-O-X,X-O-O,X-O-X,R,stimuli/blue-R.png,mB-R,m0,stimuli/m0_w0_X-O-X.png,stimuli/m0_wW-R_X-O-X.png,stimuli/m0_none_X-O-X.png,stimuli/mW-R_none_X-O-X.png,stimuli/mB-R_none_X-O-X.png,stimuli/mB-R_none_X-O-O.png,stimuli/mB-R_none_X-O-X.png,stimuli/mW-L_none_X-O-X.png,stimuli/m0_none_X-O-X.png,stimuli/m0_wW-L_X-O-X.png,0,19,19,22,,,,,,,,,197.44952909392305,204.1233052802272,204.83828631113283,204.83828631113283,204.83828631113283,205.74993760383222,205.74993760383222,right,0.3266900508897379,198.49524827231653,S4,K-M,2023-01-26_13h38.44.480,knowing_that_K_ONLY,2022.2.5,60.00130887670209,
Does Anna know that the book is here?,Does Anna think that the book is here?,Is the book here?,early,26,no_8,no_K,0,0,0,hide,X-B-O,O-B-O,X-O-X,R,stimuli/blue-R.png,mB-L,m0,stimuli/m0_w0_X-B-O.png,stimuli/m0_wW-R_X-B-O.png,stimuli/m0_none_X-B-O.png,stimuli/mW-R_none_X-B-O.png,stimuli/mB-L_none_X-B-O.png,stimuli/mB-L_none_O-B-O.png,stimuli/mB-L_none_X-O-X.png,stimuli/mW-L_none_X-O-X.png,stimuli/m0_none_X-O-X.png,stimuli/m0_wW-L_X-O-X.png,0,20,20,25,,,,,,,,,206.098943212186,212.77287627093028,213.51153830601834,213.51153830601834,213.51153830601834,214.38311718718614,214.38311718718614,right,0.2614240510156378,207.16355124593247,S4,K-M,2023-01-26_13h38.44.480,knowing_that_K_ONLY,2022.2.5,60.00130887670209,
Does Anna know that the book is here?,Does Anna think that the book is here?,Is the book here?,early,24,no_6,no_K,0,0,0,no,X-X-X,X-X-O,X-X-X,R,stimuli/blue-R.png,mB-R,m0,stimuli/m0_w0_X-X-X.png,stimuli/m0_wW-R_X-X-X.png,stimuli/m0_none_X-X-X.png,stimuli/mW-R_none_X-X-X.png,stimuli/mB-R_none_X-X-X.png,stimuli/mB-R_none_X-X-O.png,stimuli/mB-R_none_X-X-X.png,stimuli/mW-L_none_X-X-X.png,stimuli/m0_none_X-X-X.png,stimuli/m0_wW-L_X-X-X.png,0,21,21,23,,,,,,,,,214.66655620362144,221.33782852592412,222.07917118724436,222.07917118724436,222.07917118724436,222.96679115947336,222.96679115947336,right,0.5015720436349511,215.7294155425625,S4,K-M,2023-01-26_13h38.44.480,knowing_that_K_ONLY,2022.2.5,60.00130887670209,
Does Anna know that the book is here?,Does Anna think that the book is here?,Is the book here?,late,16,mem_7,mem_K,1,1,1,switch,B-X-O,O-X-B,O-X-X,R,stimuli/blue-R.png,mB-M,m0,stimuli/m0_w0_B-X-O.png,stimuli/mW-R_w0_B-X-O.png,stimuli/mB-M_w0_B-X-O.png,stimuli/mB-M_w0_O-X-B.png,stimuli/mB-M_w0_O-X-X.png,stimuli/mW-L_w0_O-X-X.png,stimuli/m0_wW-R_O-X-X.png,stimuli/m0_none_O-X-X.png,stimuli/m0_none_O-X-X.png,stimuli/m0_wW-L_O-X-X.png,0,22,22,15,,,,,,,,,223.4993144448381,230.17506998311728,230.91195958398748,230.91195958398748,230.91195958398748,231.79967996734194,231.79967996734194,right,0.18155447649769485,224.54557449638378,S4,K-M,2023-01-26_13h38.44.480,knowing_that_K_ONLY,2022.2.5,60.00130887670209,
Does Anna know that the book is here?,Does Anna think that the book is here?,Is the book here?,late,4,per_4,per_K,1,1,1,no,O-X-B,O-O-B,O-X-B,R,stimuli/blue-R.png,mB-M,m0,stimuli/m0_w0_O-X-B.png,stimuli/mW-R_w0_O-X-B.png,stimuli/mB-M_w0_O-X-B.png,stimuli/mB-M_w0_O-O-B.png,stimuli/mB-M_w0_O-X-B.png,stimuli/mW-L_w0_O-X-B.png,stimuli/m0_wW-R_O-X-B.png,stimuli/m0_none_O-X-B.png,stimuli/m0_none_O-X-B.png,stimuli/m0_wW-L_O-X-B.png,0,23,23,3,,,,,,,,,231.99953644024208,238.6763538349187,239.41418948268984,239.41418948268984,239.41418948268984,240.30005434388295,240.30005434388295,left,0.28891586896497756,233.04728148691356,S4,K-M,2023-01-26_13h38.44.480,knowing_that_K_ONLY,2022.2.5,60.00130887670209,
Does Anna know that the book is here?,Does Anna think that the book is here?,Is the book here?,early,8,per_8,per_K,1,1,1,switch,O-X-B,B-X-O,B-X-X,L,stimuli/blue-L.png,mB-L,m0,stimuli/m0_w0_O-X-B.png,stimuli/m0_wW-R_O-X-B.png,stimuli/m0_none_O-X-B.png,stimuli/mW-R_none_O-X-B.png,stimuli/mB-L_none_O-X-B.png,stimuli/mB-L_none_B-X-O.png,stimuli/mB-L_none_B-X-X.png,stimuli/mW-L_none_B-X-X.png,stimuli/m0_none_B-X-X.png,stimuli/m0_wW-L_B-X-X.png,0,24,24,7,,,,,,,,,240.6165049072588,247.28815962618683,248.02991451893467,248.02991451893467,248.02991451893467,248.91581787646282,248.91581787646282,left,0.2973225002642721,241.672905528103,S4,K-M,2023-01-26_13h38.44.480,knowing_that_K_ONLY,2022.2.5,60.00130887670209,
Does Anna know that the book is here?,Does Anna think that the book is here?,Is the book here?,early,19,no_1,no_K,0,0,0,no,X-X-X,O-X-X,X-X-X,L,stimuli/blue-L.png,mB-L,m0,stimuli/m0_w0_X-X-X.png,stimuli/m0_wW-R_X-X-X.png,stimuli/m0_none_X-X-X.png,stimuli/mW-R_none_X-X-X.png,stimuli/mB-L_none_X-X-X.png,stimuli/mB-L_none_O-X-X.png,stimuli/mB-L_none_X-X-X.png,stimuli/mW-L_none_X-X-X.png,stimuli/m0_none_X-X-X.png,stimuli/m0_wW-L_X-X-X.png,0,25,25,18,,,,,,,,,249.2331679703202,255.90577451046556,256.64321942056995,256.64321942056995,256.64321942056995,257.53335929696914,257.53335929696914,right,0.18345138209406286,250.29454873024952,S4,K-M,2023-01-26_13h38.44.480,knowing_that_K_ONLY,2022.2.5,60.00130887670209,
Does Anna know that the book is here?,Does Anna think that the book is here?,Is the book here?,late,15,mem_6,mem_K,1,1,1,no,X-B-O,X-B-X,X-X-X,M,stimuli/blue-M.png,mB-R,m0,stimuli/m0_w0_X-B-O.png,stimuli/mW-R_w0_X-B-O.png,stimuli/mB-R_w0_X-B-O.png,stimuli/mB-R_w0_X-B-X.png,stimuli/mB-R_w0_X-X-X.png,stimuli/mW-L_w0_X-X-X.png,stimuli/m0_wW-R_X-X-X.png,stimuli/m0_none_X-X-X.png,stimuli/m0_none_X-X-X.png,stimuli/m0_wW-L_X-X-X.png,0,26,26,14,,,,,,,,,257.7331711782608,264.4077955665998,265.1440968156094,265.1440968156094,265.1440968156094,266.0328809802886,266.0328809802886,right,0.6197412747424096,258.7979335181881,S4,K-M,2023-01-26_13h38.44.480,knowing_that_K_ONLY,2022.2.5,60.00130887670209,
Does Anna know that the book is here?,Does Anna think that the book is here?,Is the book here?,late,6,per_6,per_K,1,1,1,no,X-B-X,O-B-X,X-B-X,M,stimuli/blue-M.png,mB-L,m0,stimuli/m0_w0_X-B-X.png,stimuli/mW-R_w0_X-B-X.png,stimuli/mB-L_w0_X-B-X.png,stimuli/mB-L_w0_O-B-X.png,stimuli/mB-L_w0_X-B-X.png,stimuli/mW-L_w0_X-B-X.png,stimuli/m0_wW-R_X-B-X.png,stimuli/m0_none_X-B-X.png,stimuli/m0_none_X-B-X.png,stimuli/m0_wW-L_X-B-X.png,0,27,27,5,,,,,,,,,266.68291649315506,273.3594740377739,274.0969157399377,274.0969157399377,274.0969157399377,274.98332789039705,274.98332789039705,left,0.30982963007409126,267.73537284636404,S4,K-M,2023-01-26_13h38.44.480,knowing_that_K_ONLY,2022.2.5,60.00130887670209,
Does Anna know that the book is here?,Does Anna think that the book is here?,Is the book here?,early,21,no_3,no_K,0,0,0,no,X-X-O,X-O-O,X-X-O,M,stimuli/blue-M.png,mB-M,m0,stimuli/m0_w0_X-X-O.png,stimuli/m0_wW-R_X-X-O.png,stimuli/m0_none_X-X-O.png,stimuli/mW-R_none_X-X-O.png,stimuli/mB-M_none_X-X-O.png,stimuli/mB-M_none_X-O-O.png,stimuli/mB-M_none_X-X-O.png,stimuli/mW-L_none_X-X-O.png,stimuli/m0_none_X-X-O.png,stimuli/m0_wW-L_X-X-O.png,1,0,28,20,,,,,,,,,275.31651793187484,281.99011061911006,282.7291544092586,282.7291544092586,282.7291544092586,283.61652062658686,283.61652062658686,right,1.5804131251061335,276.37107393785845,S4,K-M,2023-01-26_13h38.44.480,knowing_that_K_ONLY,2022.2.5,60.00130887670209,
Does Anna know that the book is here?,Does Anna think that the book is here?,Is the book here?,late,17,mem_8,mem_K,1,1,1,switch,O-X-B,B-X-O,X-X-O,L,stimuli/blue-L.png,mB-M,m0,stimuli/m0_w0_O-X-B.png,stimuli/mW-R_w0_O-X-B.png,stimuli/mB-M_w0_O-X-B.png,stimuli/mB-M_w0_B-X-O.png,stimuli/mB-M_w0_X-X-O.png,stimuli/mW-L_w0_X-X-O.png,stimuli/m0_wW-R_X-X-O.png,stimuli/m0_none_X-X-O.png,stimuli/m0_none_X-X-O.png,stimuli/m0_wW-L_X-X-O.png,1,1,29,16,,,,,,,,,285.2165844021365,291.8897000559373,292.6301957985852,292.6301957985852,292.6301957985852,293.5166015330469,293.5166015330469,right,0.3196991211734712,286.2728223761078,S4,K-M,2023-01-26_13h38.44.480,knowing_that_K_ONLY,2022.2.5,60.00130887670209,
Does Anna know that the book is here?,Does Anna think that the book is here?,Is the book here?,late,5,per_5,per_K,1,1,1,no,X-B-O,O-B-O,X-B-O,M,stimuli/blue-M.png,mB-L,m0,stimuli/m0_w0_X-B-O.png,stimuli/mW-R_w0_X-B-O.png,stimuli/mB-L_w0_X-B-O.png,stimuli/mB-L_w0_O-B-O.png,stimuli/mB-L_w0_X-B-O.png,stimuli/mW-L_w0_X-B-O.png,stimuli/m0_wW-R_X-B-O.png,stimuli/m0_none_X-B-O.png,stimuli/m0_none_X-B-O.png,stimuli/m0_wW-L_X-B-O.png,1,2,30,4,,,,,,,,,293.8664890275104,300.5400140255224,301.2796282026684,301.2796282026684,301.2796282026684,302.16675638442393,302.16675638442393,left,0.32582452544011176,294.930025901529,S4,K-M,2023-01-26_13h38.44.480,knowing_that_K_ONLY,2022.2.5,60.00130887670209,
Does Anna know that the book is here?,Does Anna think that the book is here?,Is the book here?,late,13,mem_4,mem_K,1,1,1,no,B-X-O,B-X-O,X-X-O,L,stimuli/blue-L.png,mB-M,m0,stimuli/m0_w0_B-X-O.png,stimuli/mW-R_w0_B-X-O.png,stimuli/mB-M_w0_B-X-O.png,stimuli/mB-M_w0_B-X-O.png,stimuli/mB-M_w0_X-X-O.png,stimuli/mW-L_w0_X-X-O.png,stimuli/m0_wW-R_X-X-O.png,stimuli/m0_none_X-X-O.png,stimuli/m0_none_X-X-O.png,stimuli/m0_wW-L_X-X-O.png,1,3,31,12,,,,,,,,,302.51676417991985,309.16239603585564,309.9057106707478,309.9057106707478,309.9057106707478,310.8162253599148,310.8162253599148,right,0.6684676563600078,303.5791936434107,S4,K-M,2023-01-26_13h38.44.480,knowing_that_K_ONLY,2022.2.5,60.00130887670209,
Does Anna know that the book is here?,Does Anna think that the book is here?,Is the book here?,early,8,per_8,per_K,1,1,1,switch,O-X-B,B-X-O,B-X-X,L,stimuli/blue-L.png,mB-L,m0,stimuli/m0_w0_O-X-B.png,stimuli/m0_wW-R_O-X-B.png,stimuli/m0_none_O-X-B.png,stimuli/mW-R_none_O-X-B.png,stimuli/mB-L_none_O-X-B.png,stimuli/mB-L_none_B-X-O.png,stimuli/mB-L_none_B-X-X.png,stimuli/mW-L_none_B-X-X.png,stimuli/m0_none_B-X-X.png,stimuli/m0_wW-L_B-X-X.png,1,4,32,7,,,,,,,,,311.51589705061633,318.1744267739123,318.90539147215895,318.90539147215895,318.90539147215895,319.8002468254417,319.8002468254417,left,0.33300504949875176,312.57055410940666,S4,K-M,2023-01-26_13h38.44.480,knowing_that_K_ONLY,2022.2.5,60.00130887670209,
Does Anna know that the book is here?,Does Anna think that the book is here?,Is the book here?,late,18,mem_9,mem_K,1,1,1,switch,X-O-B,X-B-O,X-X-O,M,stimuli/blue-M.png,mB-L,m0,stimuli/m0_w0_X-O-B.png,stimuli/mW-R_w0_X-O-B.png,stimuli/mB-L_w0_X-O-B.png,stimuli/mB-L_w0_X-B-O.png,stimuli/mB-L_w0_X-X-O.png,stimuli/mW-L_w0_X-X-O.png,stimuli/m0_wW-R_X-X-O.png,stimuli/m0_none_X-X-O.png,stimuli/m0_none_X-X-O.png,stimuli/m0_wW-L_X-X-O.png,1,5,33,17,,,,,,,,,320.15022831514943,326.82297183806077,327.56335177086294,327.56335177086294,327.56335177086294,328.45003082905896,328.45003082905896,right,0.3317824708065018,321.2024155149702,S4,K-M,2023-01-26_13h38.44.480,knowing_that_K_ONLY,2022.2.5,60.00130887670209,
Does Anna know that the book is here?,Does Anna think that the book is here?,Is the book here?,early,9,per_9,per_K,1,1,1,switch,X-O-B,X-B-O,X-B-X,M,stimuli/blue-M.png,mB-R,m0,stimuli/m0_w0_X-O-B.png,stimuli/m0_wW-R_X-O-B.png,stimuli/m0_none_X-O-B.png,stimuli/mW-R_none_X-O-B.png,stimuli/mB-R_none_X-O-B.png,stimuli/mB-R_none_X-B-O.png,stimuli/mB-R_none_X-B-X.png,stimuli/mW-L_none_X-B-X.png,stimuli/m0_none_X-B-X.png,stimuli/m0_wW-L_X-B-X.png,1,6,34,8,,,,,,,,,328.7999609904364,335.4760652409168,336.21551516721956,336.21551516721956,336.21551516721956,337.0999563066289,337.0999563066289,left,0.2569453262258321,329.8591885234928,S4,K-M,2023-01-26_13h38.44.480,knowing_that_K_ONLY,2022.2.5,60.00130887670209,
Does Anna know that the book is here?,Does Anna think that the book is here?,Is the book here?,early,1,per_1,per_K,1,1,1,no,B-X-X,B-O-X,B-X-X,L,stimuli/blue-L.png,mB-M,m0,stimuli/m0_w0_B-X-X.png,stimuli/m0_wW-R_B-X-X.png,stimuli/m0_none_B-X-X.png,stimuli/mW-R_none_B-X-X.png,stimuli/mB-M_none_B-X-X.png,stimuli/mB-M_none_B-O-X.png,stimuli/mB-M_none_B-X-X.png,stimuli/mW-L_none_B-X-X.png,stimuli/m0_none_B-X-X.png,stimuli/m0_wW-L_B-X-X.png,1,7,35,0,,,,,,,,,337.38310243026353,344.06036574055906,344.79469822417013,344.79469822417013,344.79469822417013,345.68334604776464,345.68334604776464,left,0.281667014118284,338.4440542772645,S4,K-M,2023-01-26_13h38.44.480,knowing_that_K_ONLY,2022.2.5,60.00130887670209,
Does Anna know that the book is here?,Does Anna think that the book is here?,Is the book here?,late,4,per_4,per_K,1,1,1,no,O-X-B,O-O-B,O-X-B,R,stimuli/blue-R.png,mB-M,m0,stimuli/m0_w0_O-X-B.png,stimuli/mW-R_w0_O-X-B.png,stimuli/mB-M_w0_O-X-B.png,stimuli/mB-M_w0_O-O-B.png,stimuli/mB-M_w0_O-X-B.png,stimuli/mW-L_w0_O-X-B.png,stimuli/m0_wW-R_O-X-B.png,stimuli/m0_none_O-X-B.png,stimuli/m0_none_O-X-B.png,stimuli/m0_wW-L_O-X-B.png,1,8,36,3,,,,,,,,,345.9832162510138,352.65308923250996,353.3912614020519,353.3912614020519,353.3912614020519,354.28349547763355,354.28349547763355,left,0.4017918575555086,347.0458718803711,S4,K-M,2023-01-26_13h38.44.480,knowing_that_K_ONLY,2022.2.5,60.00130887670209,
Does Anna know that the book is here?,Does Anna think that the book is here?,Is the book here?,early,26,no_8,no_K,0,0,0,hide,X-B-O,O-B-O,X-O-X,R,stimuli/blue-R.png,mB-L,m0,stimuli/m0_w0_X-B-O.png,stimuli/m0_wW-R_X-B-O.png,stimuli/m0_none_X-B-O.png,stimuli/mW-R_none_X-B-O.png,stimuli/mB-L_none_X-B-O.png,stimuli/mB-L_none_O-B-O.png,stimuli/mB-L_none_X-O-X.png,stimuli/mW-L_none_X-O-X.png,stimuli/m0_none_X-O-X.png,stimuli/m0_wW-L_X-O-X.png,1,9,37,25,,,,,,,,,354.7166909086518,361.39046677411534,362.1305980850011,362.1305980850011,362.1305980850011,363.0169415837154,363.0169415837154,right,0.20360291644465178,355.7691260888241,S4,K-M,2023-01-26_13h38.44.480,knowing_that_K_ONLY,2022.2.5,60.00130887670209,
Does Anna know that the book is here?,Does Anna think that the book is here?,Is the book here?,early,7,per_7,per_K,1,1,1,switch,B-X-O,O-X-B,X-X-B,R,stimuli/blue-R.png,mB-R,m0,stimuli/m0_w0_B-X-O.png,stimuli/m0_wW-R_B-X-O.png,stimuli/m0_none_B-X-O.png,stimuli/mW-R_none_B-X-O.png,stimuli/mB-R_none_B-X-O.png,stimuli/mB-R_none_O-X-B.png,stimuli/mB-R_none_X-X-B.png,stimuli/mW-L_none_X-X-B.png,stimuli/m0_none_X-X-B.png,stimuli/m0_wW-L_X-X-B.png,1,10,38,6,,,,,,,,,363.250022295746,369.8968699934194,370.6402734905714,370.6402734905714,370.6402734905714,371.5499569803942,371.5499569803942,left,0.2638560552150011,364.30334192863666,S4,K-M,2023-01-26_13h38.44.480,knowing_that_K_ONLY,2022.2.5,60.00130887670209,
Does Anna know that the book is here?,Does Anna think that the book is here?,Is the book here?,late,16,mem_7,mem_K,1,1,1,switch,B-X-O,O-X-B,O-X-X,R,stimuli/blue-R.png,mB-M,m0,stimuli/m0_w0_B-X-O.png,stimuli/mW-R_w0_B-X-O.png,stimuli/mB-M_w0_B-X-O.png,stimuli/mB-M_w0_O-X-B.png,stimuli/mB-M_w0_O-X-X.png,stimuli/mW-L_w0_O-X-X.png,stimuli/m0_wW-R_O-X-X.png,stimuli/m0_none_O-X-X.png,stimuli/m0_none_O-X-X.png,stimuli/m0_wW-L_O-X-X.png,1,11,39,15,,,,,,,,,371.8334354554536,378.50826387421694,379.2462875122437,379.2462875122437,379.2462875122437,380.1337538199732,380.1337538199732,right,0.24767124466598034,372.89031343045644,S4,K-M,2023-01-26_13h38.44.480,knowing_that_K_ONLY,2022.2.5,60.00130887670209,
Does Anna know that the book is here?,Does Anna think that the book is here?,Is the book here?,late,6,per_6,per_K,1,1,1,no,X-B-X,O-B-X,X-B-X,M,stimuli/blue-M.png,mB-L,m0,stimuli/m0_w0_X-B-X.png,stimuli/mW-R_w0_X-B-X.png,stimuli/mB-L_w0_X-B-X.png,stimuli/mB-L_w0_O-B-X.png,stimuli/mB-L_w0_X-B-X.png,stimuli/mW-L_w0_X-B-X.png,stimuli/m0_wW-R_X-B-X.png,stimuli/m0_none_X-B-X.png,stimuli/m0_none_X-B-X.png,stimuli/m0_wW-L_X-B-X.png,1,12,40,5,,,,,,,,,380.40005427983124,387.07241733081173,387.78835114534013,387.78835114534013,387.78835114534013,388.70023983193096,388.70023983193096,left,0.34494371712207794,381.4642616311321,S4,K-M,2023-01-26_13h38.44.480,knowing_that_K_ONLY,2022.2.5,60.00130887670209,
Does Anna know that the book is here?,Does Anna think that the book is here?,Is the book here?,early,25,no_7,no_K,0,0,0,hide,B-X-X,B-O-O,O-X-X,M,stimuli/blue-M.png,mB-L,m0,stimuli/m0_w0_B-X-X.png,stimuli/m0_wW-R_B-X-X.png,stimuli/m0_none_B-X-X.png,stimuli/mW-R_none_B-X-X.png,stimuli/mB-L_none_B-X-X.png,stimuli/mB-L_none_B-O-O.png,stimuli/mB-L_none_O-X-X.png,stimuli/mW-L_none_O-X-X.png,stimuli/m0_none_O-X-X.png,stimuli/m0_wW-L_O-X-X.png,1,13,41,24,,,,,,,,,389.06696657428984,395.7419444869738,396.45784622139763,396.45784622139763,396.45784622139763,397.3667594641447,397.3667594641447,right,0.33459911739919335,390.1273499589879,S4,K-M,2023-01-26_13h38.44.480,knowing_that_K_ONLY,2022.2.5,60.00130887670209,
Does Anna know that the book is here?,Does Anna think that the book is here?,Is the book here?,early,20,no_2,no_K,0,0,0,no,X-O-X,O-O-X,X-O-X,L,stimuli/blue-L.png,mB-L,m0,stimuli/m0_w0_X-O-X.png,stimuli/m0_wW-R_X-O-X.png,stimuli/m0_none_X-O-X.png,stimuli/mW-R_none_X-O-X.png,stimuli/mB-L_none_X-O-X.png,stimuli/mB-L_none_O-O-X.png,stimuli/mB-L_none_X-O-X.png,stimuli/mW-L_none_X-O-X.png,stimuli/m0_none_X-O-X.png,stimuli/m0_wW-L_X-O-X.png,1,14,42,19,,,,,,,,,397.73343616118655,404.4076845688978,405.14397523144726,405.14397523144726,405.14397523144726,406.0333532016957,406.0333532016957,right,0.59639775485266,398.78905434452463,S4,K-M,2023-01-26_13h38.44.480,knowing_that_K_ONLY,2022.2.5,60.00130887670209,
Does Anna know that the book is here?,Does Anna think that the book is here?,Is the book here?,early,24,no_6,no_K,0,0,0,no,X-X-X,X-X-O,X-X-X,R,stimuli/blue-R.png,mB-R,m0,stimuli/m0_w0_X-X-X.png,stimuli/m0_wW-R_X-X-X.png,stimuli/m0_none_X-X-X.png,stimuli/mW-R_none_X-X-X.png,stimuli/mB-R_none_X-X-X.png,stimuli/mB-R_none_X-X-O.png,stimuli/mB-R_none_X-X-X.png,stimuli/mW-L_none_X-X-X.png,stimuli/m0_none_X-X-X.png,stimuli/m0_wW-L_X-X-X.png,1,15,43,23,,,,,,,,,406.6500140191056,413.3247340065427,414.0394616033882,414.0394616033882,414.0394616033882,414.95013893954456,414.95013893954456,right,0.3027584998635575,407.70242963032797,S4,K-M,2023-01-26_13h38.44.480,knowing_that_K_ONLY,2022.2.5,60.00130887670209,
Does Anna know that the book is here?,Does Anna think that the book is here?,Is the book here?,late,12,mem_3,mem_K,1,1,1,no,X-O-B,X-O-B,X-O-X,R,stimuli/blue-R.png,mB-M,m0,stimuli/m0_w0_X-O-B.png,stimuli/mW-R_w0_X-O-B.png,stimuli/mB-M_w0_X-O-B.png,stimuli/mB-M_w0_X-O-B.png,stimuli/mB-M_w0_X-O-X.png,stimuli/mW-L_w0_X-O-X.png,stimuli/m0_wW-R_X-O-X.png,stimuli/m0_none_X-O-X.png,stimuli/m0_none_X-O-X.png,stimuli/m0_wW-L_X-O-X.png,1,16,44,11,,,,,,,,,415.2834922695765,421.95964047010057,422.696963154478,422.696963154478,422.696963154478,423.58360756607726,423.58360756607726,right,0.30090875225141644,416.3393327691592,S4,K-M,2023-01-26_13h38.44.480,knowing_that_K_ONLY,2022.2.5,60.00130887670209,
Does Anna know that the book is here?,Does Anna think that the book is here?,Is the book here?,late,15,mem_6,mem_K,1,1,1,no,X-B-O,X-B-X,X-X-X,M,stimuli/blue-M.png,mB-R,m0,stimuli/m0_w0_X-B-O.png,stimuli/mW-R_w0_X-B-O.png,stimuli/mB-R_w0_X-B-O.png,stimuli/mB-R_w0_X-B-X.png,stimuli/mB-R_w0_X-X-X.png,stimuli/mW-L_w0_X-X-X.png,stimuli/m0_wW-R_X-X-X.png,stimuli/m0_none_X-X-X.png,stimuli/m0_none_X-X-X.png,stimuli/m0_wW-L_X-X-X.png,1,17,45,14,,,,,,,,,423.916799532366,430.56651937554125,431.32737581571564,431.32737581571564,431.32737581571564,432.2166613948066,432.2166613948066,right,0.30856438470073044,424.97786237695254,S4,K-M,2023-01-26_13h38.44.480,knowing_that_K_ONLY,2022.2.5,60.00130887670209,
Does Anna know that the book is here?,Does Anna think that the book is here?,Is the book here?,early,22,no_4,no_K,0,0,0,no,O-X-X,O-O-X,O-X-X,M,stimuli/blue-M.png,mB-M,m0,stimuli/m0_w0_O-X-X.png,stimuli/m0_wW-R_O-X-X.png,stimuli/m0_none_O-X-X.png,stimuli/mW-R_none_O-X-X.png,stimuli/mB-M_none_O-X-X.png,stimuli/mB-M_none_O-O-X.png,stimuli/mB-M_none_O-X-X.png,stimuli/mW-L_none_O-X-X.png,stimuli/m0_none_O-X-X.png,stimuli/m0_wW-L_O-X-X.png,1,18,46,21,,,,,,,,,432.55016229394823,439.22283395705745,439.95975852548145,439.95975852548145,439.95975852548145,440.85018519929145,440.85018519929145,right,0.34744341077748686,433.60913863871247,S4,K-M,2023-01-26_13h38.44.480,knowing_that_K_ONLY,2022.2.5,60.00130887670209,
Does Anna know that the book is here?,Does Anna think that the book is here?,Is the book here?,late,14,mem_5,mem_K,1,1,1,no,O-B-X,O-B-X,O-X-X,M,stimuli/blue-M.png,mB-L,m0,stimuli/m0_w0_O-B-X.png,stimuli/mW-R_w0_O-B-X.png,stimuli/mB-L_w0_O-B-X.png,stimuli/mB-L_w0_O-B-X.png,stimuli/mB-L_w0_O-X-X.png,stimuli/mW-L_w0_O-X-X.png,stimuli/m0_wW-R_O-X-X.png,stimuli/m0_none_O-X-X.png,stimuli/m0_none_O-X-X.png,stimuli/m0_wW-L_O-X-X.png,1,19,47,13,,,,,,,,,441.21676180604845,447.89104261470493,448.6298958482221,448.6298958482221,448.6298958482221,449.5170015738113,449.5170015738113,right,0.4003014088375494,442.27146666438784,S4,K-M,2023-01-26_13h38.44.480,knowing_that_K_ONLY,2022.2.5,60.00130887670209,
Does Anna know that the book is here?,Does Anna think that the book is here?,Is the book here?,early,27,no_9,no_K,0,0,0,hide,X-X-B,O-O-B,X-X-O,L,stimuli/blue-L.png,mB-M,m0,stimuli/m0_w0_X-X-B.png,stimuli/m0_wW-R_X-X-B.png,stimuli/m0_none_X-X-B.png,stimuli/mW-R_none_X-X-B.png,stimuli/mB-M_none_X-X-B.png,stimuli/mB-M_none_O-O-B.png,stimuli/mB-M_none_X-X-O.png,stimuli/mW-L_none_X-X-O.png,stimuli/m0_none_X-X-O.png,stimuli/m0_wW-L_X-X-O.png,1,20,48,26,,,,,,,,,449.9335043638712,456.609094047104,457.3468498149887,457.3468498149887,457.3468498149887,458.23364500375465,458.23364500375465,right,0.2845574452076107,450.98741780233104,S4,K-M,2023-01-26_13h38.44.480,knowing_that_K_ONLY,2022.2.5,60.00130887670209,
Does Anna know that the book is here?,Does Anna think that the book is here?,Is the book here?,late,10,mem_1,mem_K,1,1,1,no,O-X-B,X-X-B,X-X-X,R,stimuli/blue-R.png,mB-M,m0,stimuli/m0_w0_O-X-B.png,stimuli/mW-R_w0_O-X-B.png,stimuli/mB-M_w0_O-X-B.png,stimuli/mB-M_w0_X-X-B.png,stimuli/mB-M_w0_X-X-X.png,stimuli/mW-L_w0_X-X-X.png,stimuli/m0_wW-R_X-X-X.png,stimuli/m0_none_X-X-X.png,stimuli/m0_none_X-X-X.png,stimuli/m0_wW-L_X-X-X.png,1,21,49,9,,,,,,,,,458.5663929792354,465.23634359496646,465.9556227386929,465.9556227386929,465.9556227386929,466.8670164269861,466.8670164269861,right,1.0669217730173841,459.62544310849626,S4,K-M,2023-01-26_13h38.44.480,knowing_that_K_ONLY,2022.2.5,60.00130887670209,
Does Anna know that the book is here?,Does Anna think that the book is here?,Is the book here?,late,11,mem_2,mem_K,1,1,1,no,O-B-O,O-B-X,O-X-X,M,stimuli/blue-M.png,mB-L,m0,stimuli/m0_w0_O-B-O.png,stimuli/mW-R_w0_O-B-O.png,stimuli/mB-L_w0_O-B-O.png,stimuli/mB-L_w0_O-B-X.png,stimuli/mB-L_w0_O-X-X.png,stimuli/mW-L_w0_O-X-X.png,stimuli/m0_wW-R_O-X-X.png,stimuli/m0_none_O-X-X.png,stimuli/m0_none_O-X-X.png,stimuli/m0_wW-L_O-X-X.png,1,22,50,10,,,,,,,,,467.95017230301164,474.6199766327627,475.3589976459043,475.3589976459043,475.3589976459043,476.25037485780194,476.25037485780194,right,0.2586491086985916,469.0101896520937,S4,K-M,2023-01-26_13h38.44.480,knowing_that_K_ONLY,2022.2.5,60.00130887670209,
Does Anna know that the book is here?,Does Anna think that the book is here?,Is the book here?,early,3,per_3,per_K,1,1,1,no,O-B-X,O-B-O,O-B-X,M,stimuli/blue-M.png,mB-R,m0,stimuli/m0_w0_O-B-X.png,stimuli/m0_wW-R_O-B-X.png,stimuli/m0_none_O-B-X.png,stimuli/mW-R_none_O-B-X.png,stimuli/mB-R_none_O-B-X.png,stimuli/mB-R_none_O-B-O.png,stimuli/mB-R_none_O-B-X.png,stimuli/mW-L_none_O-B-X.png,stimuli/m0_none_O-B-X.png,stimuli/m0_wW-L_O-B-X.png,1,23,51,2,,,,,,,,,476.53356300655287,483.2054291344248,483.94626621098723,483.94626621098723,483.94626621098723,484.83355030277744,484.83355030277744,left,0.28321520728059113,477.5934754530899,S4,K-M,2023-01-26_13h38.44.480,knowing_that_K_ONLY,2022.2.5,60.00130887670209,
Does Anna know that the book is here?,Does Anna think that the book is here?,Is the book here?,early,23,no_5,no_K,0,0,0,no,X-O-X,X-O-O,X-O-X,R,stimuli/blue-R.png,mB-R,m0,stimuli/m0_w0_X-O-X.png,stimuli/m0_wW-R_X-O-X.png,stimuli/m0_none_X-O-X.png,stimuli/mW-R_none_X-O-X.png,stimuli/mB-R_none_X-O-X.png,stimuli/mB-R_none_X-O-O.png,stimuli/mB-R_none_X-O-X.png,stimuli/mW-L_none_X-O-X.png,stimuli/m0_none_X-O-X.png,stimuli/m0_wW-L_X-O-X.png,1,24,52,22,,,,,,,,,485.1335244460497,491.8049327885965,492.5453261951916,492.5453261951916,492.5453261951916,493.4335730156163,493.4335730156163,right,0.12303784186951816,486.18527118396014,S4,K-M,2023-01-26_13h38.44.480,knowing_that_K_ONLY,2022.2.5,60.00130887670209,
Does Anna know that the book is here?,Does Anna think that the book is here?,Is the book here?,early,28,no_10,no_K,0,0,0,hide,O-B-O,O-B-O,X-O-X,L,stimuli/blue-L.png,mB-M,m0,stimuli/m0_w0_O-B-O.png,stimuli/m0_wW-R_O-B-O.png,stimuli/m0_none_O-B-O.png,stimuli/mW-R_none_O-B-O.png,stimuli/mB-M_none_O-B-O.png,stimuli/mB-M_none_O-B-O.png,stimuli/mB-M_none_X-O-X.png,stimuli/mW-L_none_X-O-X.png,stimuli/m0_none_X-O-X.png,stimuli/m0_wW-L_X-O-X.png,1,25,53,27,,,,,,,,,493.5838083884446,500.25435056409333,500.99396057077684,500.99396057077684,500.99396057077684,501.88356310280506,501.88356310280506,right,0.257415943662636,494.6375909395283,S4,K-M,2023-01-26_13h38.44.480,knowing_that_K_ONLY,2022.2.5,60.00130887670209,
Does Anna know that the book is here?,Does Anna think that the book is here?,Is the book here?,early,2,per_2,per_K,1,1,1,no,X-X-B,O-X-B,X-X-B,R,stimuli/blue-R.png,mB-L,m0,stimuli/m0_w0_X-X-B.png,stimuli/m0_wW-R_X-X-B.png,stimuli/m0_none_X-X-B.png,stimuli/mW-R_none_X-X-B.png,stimuli/mB-L_none_X-X-B.png,stimuli/mB-L_none_O-X-B.png,stimuli/mB-L_none_X-X-B.png,stimuli/mW-L_none_X-X-B.png,stimuli/m0_none_X-X-B.png,stimuli/m0_wW-L_X-X-B.png,1,26,54,1,,,,,,,,,502.1670656381175,508.81922229751945,509.58008451224305,509.58008451224305,509.58008451224305,510.4671119620325,510.4671119620325,left,0.5948505239794031,503.2251966679469,S4,K-M,2023-01-26_13h38.44.480,knowing_that_K_ONLY,2022.2.5,60.00130887670209,
Does Anna know that the book is here?,Does Anna think that the book is here?,Is the book here?,early,19,no_1,no_K,0,0,0,no,X-X-X,O-X-X,X-X-X,L,stimuli/blue-L.png,mB-L,m0,stimuli/m0_w0_X-X-X.png,stimuli/m0_wW-R_X-X-X.png,stimuli/m0_none_X-X-X.png,stimuli/mW-R_none_X-X-X.png,stimuli/mB-L_none_X-X-X.png,stimuli/mB-L_none_O-X-X.png,stimuli/mB-L_none_X-X-X.png,stimuli/mW-L_none_X-X-X.png,stimuli/m0_none_X-X-X.png,stimuli/m0_wW-L_X-X-X.png,1,27,55,18,,,,,,,,,511.0836640272755,517.7575338879833,518.4933500834741,518.4933500834741,518.4933500834741,519.3836006367346,519.3836006367346,right,0.2695169374346733,512.1479262359207,S4,K-M,2023-01-26_13h38.44.480,knowing_that_K_ONLY,2022.2.5,60.00130887670209,
Does Anna know that the book is here?,Does Anna think that the book is here?,Is the book here?,early,1,per_1,per_K,1,1,1,no,B-X-X,B-O-X,B-X-X,L,stimuli/blue-L.png,mB-M,m0,stimuli/m0_w0_B-X-X.png,stimuli/m0_wW-R_B-X-X.png,stimuli/m0_none_B-X-X.png,stimuli/mW-R_none_B-X-X.png,stimuli/mB-M_none_B-X-X.png,stimuli/mB-M_none_B-O-X.png,stimuli/mB-M_none_B-X-X.png,stimuli/mW-L_none_B-X-X.png,stimuli/m0_none_B-X-X.png,stimuli/m0_wW-L_B-X-X.png,2,0,56,0,,,,,,,,,519.6836158427177,526.3577866161941,527.0737711176043,527.0737711176043,527.0737711176043,527.983779901173,527.983779901173,left,0.26976780500262976,520.7476650384488,S4,K-M,2023-01-26_13h38.44.480,knowing_that_K_ONLY,2022.2.5,60.00130887670209,
Does Anna know that the book is here?,Does Anna think that the book is here?,Is the book here?,early,7,per_7,per_K,1,1,1,switch,B-X-O,O-X-B,X-X-B,R,stimuli/blue-R.png,mB-R,m0,stimuli/m0_w0_B-X-O.png,stimuli/m0_wW-R_B-X-O.png,stimuli/m0_none_B-X-O.png,stimuli/mW-R_none_B-X-O.png,stimuli/mB-R_none_B-X-O.png,stimuli/mB-R_none_O-X-B.png,stimuli/mB-R_none_X-X-B.png,stimuli/mW-L_none_X-X-B.png,stimuli/m0_none_X-X-B.png,stimuli/m0_wW-L_X-X-B.png,2,1,57,6,,,,,,,,,528.2838076185435,534.9565495373681,535.6949526848039,535.6949526848039,535.6949526848039,536.5834497312317,536.5834497312317,left,0.6223798758583143,529.3405335331336,S4,K-M,2023-01-26_13h38.44.480,knowing_that_K_ONLY,2022.2.5,60.00130887670209,
Does Anna know that the book is here?,Does Anna think that the book is here?,Is the book here?,early,28,no_10,no_K,0,0,0,hide,O-B-O,O-B-O,X-O-X,L,stimuli/blue-L.png,mB-M,m0,stimuli/m0_w0_O-B-O.png,stimuli/m0_wW-R_O-B-O.png,stimuli/m0_none_O-B-O.png,stimuli/mW-R_none_O-B-O.png,stimuli/mB-M_none_O-B-O.png,stimuli/mB-M_none_O-B-O.png,stimuli/mB-M_none_X-O-X.png,stimuli/mW-L_none_X-O-X.png,stimuli/m0_none_X-O-X.png,stimuli/m0_wW-L_X-O-X.png,2,2,58,27,,,,,,,,,537.2336167730391,543.9058537486708,544.6440166149987,544.6440166149987,544.6440166149987,545.5337102549383,545.5337102549383,right,0.39220916386693716,538.2850584277185,S4,K-M,2023-01-26_13h38.44.480,knowing_that_K_ONLY,2022.2.5,60.00130887670209,
Does Anna know that the book is here?,Does Anna think that the book is here?,Is the book here?,late,18,mem_9,mem_K,1,1,1,switch,X-O-B,X-B-O,X-X-O,M,stimuli/blue-M.png,mB-L,m0,stimuli/m0_w0_X-O-B.png,stimuli/mW-R_w0_X-O-B.png,stimuli/mB-L_w0_X-O-B.png,stimuli/mB-L_w0_X-B-O.png,stimuli/mB-L_w0_X-X-O.png,stimuli/mW-L_w0_X-X-O.png,stimuli/m0_wW-R_X-X-O.png,stimuli/m0_none_X-X-O.png,stimuli/m0_none_X-X-O.png,stimuli/m0_wW-L_X-X-O.png,2,3,59,17,,,,,,,,,545.9502181777498,552.6262037314009,553.3646492247935,553.3646492247935,553.3646492247935,554.2504617952509,554.2504617952509,right,0.3387118064565584,547.0075892263558,S4,K-M,2023-01-26_13h38.44.480,knowing_that_K_ONLY,2022.2.5,60.00130887670209,
Does Anna know that the book is here?,Does Anna think that the book is here?,Is the book here?,early,21,no_3,no_K,0,0,0,no,X-X-O,X-O-O,X-X-O,M,stimuli/blue-M.png,mB-M,m0,stimuli/m0_w0_X-X-O.png,stimuli/m0_wW-R_X-X-O.png,stimuli/m0_none_X-X-O.png,stimuli/mW-R_none_X-X-O.png,stimuli/mB-M_none_X-X-O.png,stimuli/mB-M_none_X-O-O.png,stimuli/mB-M_none_X-X-O.png,stimuli/mW-L_none_X-X-O.png,stimuli/m0_none_X-X-O.png,stimuli/m0_wW-L_X-X-O.png,2,4,60,20,,,,,,,,,554.6172340915073,561.291924244375,562.0279056532308,562.0279056532308,562.0279056532308,562.9173224405386,562.9173224405386,right,0.28003444976639,555.6785978489788,S4,K-M,2023-01-26_13h38.44.480,knowing_that_K_ONLY,2022.2.5,60.00130887670209,
Does Anna know that the book is here?,Does Anna think that the book is here?,Is the book here?,early,23,no_5,no_K,0,0,0,no,X-O-X,X-O-O,X-O-X,R,stimuli/blue-R.png,mB-R,m0,stimuli/m0_w0_X-O-X.png,stimuli/m0_wW-R_X-O-X.png,stimuli/m0_none_X-O-X.png,stimuli/mW-R_none_X-O-X.png,stimuli/mB-R_none_X-O-X.png,stimuli/mB-R_none_X-O-O.png,stimuli/mB-R_none_X-O-X.png,stimuli/mW-L_none_X-O-X.png,stimuli/m0_none_X-O-X.png,stimuli/m0_wW-L_X-O-X.png,2,5,61,22,,,,,,,,,563.2171015358763,569.8931185281835,570.6296767400345,570.6296767400345,570.6296767400345,571.5171744864201,571.5171744864201,right,0.49579214362893254,564.2793077208335,S4,K-M,2023-01-26_13h38.44.480,knowing_that_K_ONLY,2022.2.5,60.00130887670209,
Does Anna know that the book is here?,Does Anna think that the book is here?,Is the book here?,early,27,no_9,no_K,0,0,0,hide,X-X-B,O-O-B,X-X-O,L,stimuli/blue-L.png,mB-M,m0,stimuli/m0_w0_X-X-B.png,stimuli/m0_wW-R_X-X-B.png,stimuli/m0_none_X-X-B.png,stimuli/mW-R_none_X-X-B.png,stimuli/mB-M_none_X-X-B.png,stimuli/mB-M_none_O-O-B.png,stimuli/mB-M_none_X-X-O.png,stimuli/mW-L_none_X-X-O.png,stimuli/m0_none_X-X-O.png,stimuli/m0_wW-L_X-X-O.png,2,6,62,26,,,,,,,,,572.0339171725791,578.7051051238086,579.4468847182579,579.4468847182579,579.4468847182579,580.3336372402264,580.3336372402264,right,1.0878121155546978,573.0874100389192,S4,K-M,2023-01-26_13h38.44.480,knowing_that_K_ONLY,2022.2.5,60.00130887670209,
Does Anna know that the book is here?,Does Anna think that the book is here?,Is the book here?,early,25,no_7,no_K,0,0,0,hide,B-X-X,B-O-O,O-X-X,M,stimuli/blue-M.png,mB-L,m0,stimuli/m0_w0_B-X-X.png,stimuli/m0_wW-R_B-X-X.png,stimuli/m0_none_B-X-X.png,stimuli/mW-R_none_B-X-X.png,stimuli/mB-L_none_B-X-X.png,stimuli/mB-L_none_B-O-O.png,stimuli/mB-L_none_O-X-X.png,stimuli/mW-L_none_O-X-X.png,stimuli/m0_none_O-X-X.png,stimuli/m0_wW-L_O-X-X.png,2,7,63,24,,,,,,,,,581.4505171658238,588.1227326475782,588.8394492204534,588.8394492204534,588.8394492204534,589.7504358103033,589.7504358103033,right,0.3270053998567164,582.5032003264641,S4,K-M,2023-01-26_13h38.44.480,knowing_that_K_ONLY,2022.2.5,60.00130887670209,
Does Anna know that the book is here?,Does Anna think that the book is here?,Is the book here?,early,24,no_6,no_K,0,0,0,no,X-X-X,X-X-O,X-X-X,R,stimuli/blue-R.png,mB-R,m0,stimuli/m0_w0_X-X-X.png,stimuli/m0_wW-R_X-X-X.png,stimuli/m0_none_X-X-X.png,stimuli/mW-R_none_X-X-X.png,stimuli/mB-R_none_X-X-X.png,stimuli/mB-R_none_X-X-O.png,stimuli/mB-R_none_X-X-X.png,stimuli/mW-L_none_X-X-X.png,stimuli/m0_none_X-X-X.png,stimuli/m0_wW-L_X-X-X.png,2,8,64,23,,,,,,,,,590.1003428737167,596.7753621700685,597.5117715295637,597.5117715295637,597.5117715295637,598.4005220099352,598.4005220099352,right,0.2524396541994065,591.1576330801472,S4,K-M,2023-01-26_13h38.44.480,knowing_that_K_ONLY,2022.2.5,60.00130887670209,
Does Anna know that the book is here?,Does Anna think that the book is here?,Is the book here?,early,19,no_1,no_K,0,0,0,no,X-X-X,O-X-X,X-X-X,L,stimuli/blue-L.png,mB-L,m0,stimuli/m0_w0_X-X-X.png,stimuli/m0_wW-R_X-X-X.png,stimuli/m0_none_X-X-X.png,stimuli/mW-R_none_X-X-X.png,stimuli/mB-L_none_X-X-X.png,stimuli/mB-L_none_O-X-X.png,stimuli/mB-L_none_X-X-X.png,stimuli/mW-L_none_X-X-X.png,stimuli/m0_none_X-X-X.png,stimuli/m0_wW-L_X-X-X.png,2,9,65,18,,,,,,,,,598.6840101091657,605.3573050915729,606.096700481372,606.096700481372,606.096700481372,606.9838867284125,606.9838867284125,right,0.41498999611940235,599.7460744993296,S4,K-M,2023-01-26_13h38.44.480,knowing_that_K_ONLY,2022.2.5,60.00130887670209,
Does Anna know that the book is here?,Does Anna think that the book is here?,Is the book here?,late,5,per_5,per_K,1,1,1,no,X-B-O,O-B-O,X-B-O,M,stimuli/blue-M.png,mB-L,m0,stimuli/m0_w0_X-B-O.png,stimuli/mW-R_w0_X-B-O.png,stimuli/mB-L_w0_X-B-O.png,stimuli/mB-L_w0_O-B-O.png,stimuli/mB-L_w0_X-B-O.png,stimuli/mW-L_w0_X-B-O.png,stimuli/m0_wW-R_X-B-O.png,stimuli/m0_none_X-B-O.png,stimuli/m0_none_X-B-O.png,stimuli/m0_wW-L_X-B-O.png,2,10,66,4,,,,,,,,,607.4170555328019,614.0896473160246,614.8264586410951,614.8264586410951,614.8264586410951,615.7172632204602,615.7172632204602,left,0.2157501057954505,608.4806498305406,S4,K-M,2023-01-26_13h38.44.480,knowing_that_K_ONLY,2022.2.5,60.00130887670209,
Does Anna know that the book is here?,Does Anna think that the book is here?,Is the book here?,late,11,mem_2,mem_K,1,1,1,no,O-B-O,O-B-X,O-X-X,M,stimuli/blue-M.png,mB-L,m0,stimuli/m0_w0_O-B-O.png,stimuli/mW-R_w0_O-B-O.png,stimuli/mB-L_w0_O-B-O.png,stimuli/mB-L_w0_O-B-X.png,stimuli/mB-L_w0_O-X-X.png,stimuli/mW-L_w0_O-X-X.png,stimuli/m0_wW-R_O-X-X.png,stimuli/m0_none_O-X-X.png,stimuli/m0_none_O-X-X.png,stimuli/m0_wW-L_O-X-X.png,2,11,67,10,,,,,,,,,615.9503371955361,622.6239269955549,623.3635411727009,623.3635411727009,623.3635411727009,624.2506247629644,624.2506247629644,right,0.31484152865596116,617.003805680899,S4,K-M,2023-01-26_13h38.44.480,knowing_that_K_ONLY,2022.2.5,60.00130887670209,
Does Anna know that the book is here?,Does Anna think that the book is here?,Is the book here?,early,26,no_8,no_K,0,0,0,hide,X-B-O,O-B-O,X-O-X,R,stimuli/blue-R.png,mB-L,m0,stimuli/m0_w0_X-B-O.png,stimuli/m0_wW-R_X-B-O.png,stimuli/m0_none_X-B-O.png,stimuli/mW-R_none_X-B-O.png,stimuli/mB-L_none_X-B-O.png,stimuli/mB-L_none_O-B-O.png,stimuli/mB-L_none_X-O-X.png,stimuli/mW-L_none_X-O-X.png,stimuli/m0_none_X-O-X.png,stimuli/m0_wW-L_X-O-X.png,2,12,68,25,,,,,,,,,624.583753210376,631.2559812035179,631.9976045672083,631.9976045672083,631.9976045672083,632.8835217192536,632.8835217192536,right,0.3058776631951332,625.6377869498683,S4,K-M,2023-01-26_13h38.44.480,knowing_that_K_ONLY,2022.2.5,60.00130887670209,
Does Anna know that the book is here?,Does Anna think that the book is here?,Is the book here?,late,6,per_6,per_K,1,1,1,no,X-B-X,O-B-X,X-B-X,M,stimuli/blue-M.png,mB-L,m0,stimuli/m0_w0_X-B-X.png,stimuli/mW-R_w0_X-B-X.png,stimuli/mB-L_w0_X-B-X.png,stimuli/mB-L_w0_O-B-X.png,stimuli/mB-L_w0_X-B-X.png,stimuli/mW-L_w0_X-B-X.png,stimuli/m0_wW-R_X-B-X.png,stimuli/m0_none_X-B-X.png,stimuli/m0_none_X-B-X.png,stimuli/m0_wW-L_X-B-X.png,2,13,69,5,,,,,,,,,633.2171024982817,639.8921837095404,640.6313696152065,640.6313696152065,640.6313696152065,641.5174442813732,641.5174442813732,left,0.28775039326865226,634.2694151320029,S4,K-M,2023-01-26_13h38.44.480,knowing_that_K_ONLY,2022.2.5,60.00130887670209,
Does Anna know that the book is here?,Does Anna think that the book is here?,Is the book here?,early,22,no_4,no_K,0,0,0,no,O-X-X,O-O-X,O-X-X,M,stimuli/blue-M.png,mB-M,m0,stimuli/m0_w0_O-X-X.png,stimuli/m0_wW-R_O-X-X.png,stimuli/m0_none_O-X-X.png,stimuli/mW-R_none_O-X-X.png,stimuli/mB-M_none_O-X-X.png,stimuli/mB-M_none_O-O-X.png,stimuli/mB-M_none_O-X-X.png,stimuli/mW-L_none_O-X-X.png,stimuli/m0_none_O-X-X.png,stimuli/m0_wW-L_O-X-X.png,2,14,70,21,,,,,,,,,641.8338345338125,648.5061051937519,649.244379378506,649.244379378506,649.244379378506,650.133804185898,650.133804185898,right,0.6960826624417678,642.8965296219103,S4,K-M,2023-01-26_13h38.44.480,knowing_that_K_ONLY,2022.2.5,60.00130887670209,
Does Anna know that the book is here?,Does Anna think that the book is here?,Is the book here?,early,9,per_9,per_K,1,1,1,switch,X-O-B,X-B-O,X-B-X,M,stimuli/blue-M.png,mB-R,m0,stimuli/m0_w0_X-O-B.png,stimuli/m0_wW-R_X-O-B.png,stimuli/m0_none_X-O-B.png,stimuli/mW-R_none_X-O-B.png,stimuli/mB-R_none_X-O-B.png,stimuli/mB-R_none_X-B-O.png,stimuli/mB-R_none_X-B-X.png,stimuli/mW-L_none_X-B-X.png,stimuli/m0_none_X-B-X.png,stimuli/m0_wW-L_X-B-X.png,2,15,71,8,,,,,,,,,650.8504851496546,657.5267947139218,658.265300518251,658.265300518251,658.265300518251,659.1508003061172,659.1508003061172,left,0.24718811607453972,651.9136113964487,S4,K-M,2023-01-26_13h38.44.480,knowing_that_K_ONLY,2022.2.5,60.00130887670209,
Does Anna know that the book is here?,Does Anna think that the book is here?,Is the book here?,late,17,mem_8,mem_K,1,1,1,switch,O-X-B,B-X-O,X-X-O,L,stimuli/blue-L.png,mB-M,m0,stimuli/m0_w0_O-X-B.png,stimuli/mW-R_w0_O-X-B.png,stimuli/mB-M_w0_O-X-B.png,stimuli/mB-M_w0_B-X-O.png,stimuli/mB-M_w0_X-X-O.png,stimuli/mW-L_w0_X-X-O.png,stimuli/m0_wW-R_X-X-O.png,stimuli/m0_none_X-X-O.png,stimuli/m0_none_X-X-O.png,stimuli/m0_wW-L_X-X-O.png,2,16,72,16,,,,,,,,,659.4171344502829,666.0906860748073,666.829164931667,666.829164931667,666.829164931667,667.7173373257974,667.7173373257974,right,0.2877314657671377,660.4769573928788,S4,K-M,2023-01-26_13h38.44.480,knowing_that_K_ONLY,2022.2.5,60.00130887670209,
Does Anna know that the book is here?,Does Anna think that the book is here?,Is the book here?,late,16,mem_7,mem_K,1,1,1,switch,B-X-O,O-X-B,O-X-X,R,stimuli/blue-R.png,mB-M,m0,stimuli/m0_w0_B-X-O.png,stimuli/mW-R_w0_B-X-O.png,stimuli/mB-M_w0_B-X-O.png,stimuli/mB-M_w0_O-X-B.png,stimuli/mB-M_w0_O-X-X.png,stimuli/mW-L_w0_O-X-X.png,stimuli/m0_wW-R_O-X-X.png,stimuli/m0_none_O-X-X.png,stimuli/m0_none_O-X-X.png,stimuli/m0_wW-L_O-X-X.png,2,17,73,15,,,,,,,,,668.0339842203539,674.7061843036208,675.4475972207729,675.4475972207729,675.4475972207729,676.3334992951714,676.3334992951714,right,0.7682263486785814,669.0886627729051,S4,K-M,2023-01-26_13h38.44.480,knowing_that_K_ONLY,2022.2.5,60.00130887670209,
Does Anna know that the book is here?,Does Anna think that the book is here?,Is the book here?,late,14,mem_5,mem_K,1,1,1,no,O-B-X,O-B-X,O-X-X,M,stimuli/blue-M.png,mB-L,m0,stimuli/m0_w0_O-B-X.png,stimuli/mW-R_w0_O-B-X.png,stimuli/mB-L_w0_O-B-X.png,stimuli/mB-L_w0_O-B-X.png,stimuli/mB-L_w0_O-X-X.png,stimuli/mW-L_w0_O-X-X.png,stimuli/m0_wW-R_O-X-X.png,stimuli/m0_none_O-X-X.png,stimuli/m0_none_O-X-X.png,stimuli/m0_wW-L_O-X-X.png,2,18,74,13,,,,,,,,,677.1336303110002,683.8086111109005,684.5476667707553,684.5476667707553,684.5476667707553,685.4337792916922,685.4337792916922,right,0.26737461786251515,678.1825357005,S4,K-M,2023-01-26_13h38.44.480,knowing_that_K_ONLY,2022.2.5,60.00130887670209,
Does Anna know that the book is here?,Does Anna think that the book is here?,Is the book here?,late,10,mem_1,mem_K,1,1,1,no,O-X-B,X-X-B,X-X-X,R,stimuli/blue-R.png,mB-M,m0,stimuli/m0_w0_O-X-B.png,stimuli/mW-R_w0_O-X-B.png,stimuli/mB-M_w0_O-X-B.png,stimuli/mB-M_w0_X-X-B.png,stimuli/mB-M_w0_X-X-X.png,stimuli/mW-L_w0_X-X-X.png,stimuli/m0_wW-R_X-X-X.png,stimuli/m0_none_X-X-X.png,stimuli/m0_none_X-X-X.png,stimuli/m0_wW-L_X-X-X.png,2,19,75,9,,,,,,,,,685.7171525434824,692.3902178313583,693.1293934714049,693.1293934714049,693.1293934714049,694.0172588574933,694.0172588574933,right,0.3971014030976221,686.7802653164836,S4,K-M,2023-01-26_13h38.44.480,knowing_that_K_ONLY,2022.2.5,60.00130887670209,
Does Anna know that the book is here?,Does Anna think that the book is here?,Is the book here?,early,8,per_8,per_K,1,1,1,switch,O-X-B,B-X-O,B-X-X,L,stimuli/blue-L.png,mB-L,m0,stimuli/m0_w0_O-X-B.png,stimuli/m0_wW-R_O-X-B.png,stimuli/m0_none_O-X-B.png,stimuli/mW-R_none_O-X-B.png,stimuli/mB-L_none_O-X-B.png,stimuli/mB-L_none_B-X-O.png,stimuli/mB-L_none_B-X-X.png,stimuli/mW-L_none_B-X-X.png,stimuli/m0_none_B-X-X.png,stimuli/m0_wW-L_B-X-X.png,2,20,76,7,,,,,,,,,694.433799502207,701.0842081084847,701.8446757359197,701.8446757359197,701.8446757359197,702.734024192323,702.734024192323,left,0.2949354083975777,695.495679751737,S4,K-M,2023-01-26_13h38.44.480,knowing_that_K_ONLY,2022.2.5,60.00130887670209,
Does Anna know that the book is here?,Does Anna think that the book is here?,Is the book here?,late,4,per_4,per_K,1,1,1,no,O-X-B,O-O-B,O-X-B,R,stimuli/blue-R.png,mB-M,m0,stimuli/m0_w0_O-X-B.png,stimuli/mW-R_w0_O-X-B.png,stimuli/mB-M_w0_O-X-B.png,stimuli/mB-M_w0_O-O-B.png,stimuli/mB-M_w0_O-X-B.png,stimuli/mW-L_w0_O-X-B.png,stimuli/m0_wW-R_O-X-B.png,stimuli/m0_none_O-X-B.png,stimuli/m0_none_O-X-B.png,stimuli/m0_wW-L_O-X-B.png,2,21,77,3,,,,,,,,,703.0508330921875,709.7251126177143,710.4648660231614,710.4648660231614,710.4648660231614,711.3507478870451,711.3507478870451,left,0.2627794418949634,704.1033860069001,S4,K-M,2023-01-26_13h38.44.480,knowing_that_K_ONLY,2022.2.5,60.00130887670209,
Does Anna know that the book is here?,Does Anna think that the book is here?,Is the book here?,early,20,no_2,no_K,0,0,0,no,X-O-X,O-O-X,X-O-X,L,stimuli/blue-L.png,mB-L,m0,stimuli/m0_w0_X-O-X.png,stimuli/m0_wW-R_X-O-X.png,stimuli/m0_none_X-O-X.png,stimuli/mW-R_none_X-O-X.png,stimuli/mB-L_none_X-O-X.png,stimuli/mB-L_none_O-O-X.png,stimuli/mB-L_none_X-O-X.png,stimuli/mW-L_none_X-O-X.png,stimuli/m0_none_X-O-X.png,stimuli/m0_wW-L_X-O-X.png,2,22,78,19,,,,,,,,,711.6341856202343,718.3068553584162,719.0461875501787,719.0461875501787,719.0461875501787,719.9338992717676,719.9338992717676,right,0.0950555169256404,712.6873256036779,S4,K-M,2023-01-26_13h38.44.480,knowing_that_K_ONLY,2022.2.5,60.00130887670209,
Does Anna know that the book is here?,Does Anna think that the book is here?,Is the book here?,late,12,mem_3,mem_K,1,1,1,no,X-O-B,X-O-B,X-O-X,R,stimuli/blue-R.png,mB-M,m0,stimuli/m0_w0_X-O-B.png,stimuli/mW-R_w0_X-O-B.png,stimuli/mB-M_w0_X-O-B.png,stimuli/mB-M_w0_X-O-B.png,stimuli/mB-M_w0_X-O-X.png,stimuli/mW-L_w0_X-O-X.png,stimuli/m0_wW-R_X-O-X.png,stimuli/m0_none_X-O-X.png,stimuli/m0_none_X-O-X.png,stimuli/m0_wW-L_X-O-X.png,2,23,79,11,,,,,,,,,720.0508690220304,726.7236917831469,727.4600761199836,727.4600761199836,727.4600761199836,728.3499766776804,728.3499766776804,right,0.3032868617447093,721.1085259057581,S4,K-M,2023-01-26_13h38.44.480,knowing_that_K_ONLY,2022.2.5,60.00130887670209,
Does Anna know that the book is here?,Does Anna think that the book is here?,Is the book here?,early,3,per_3,per_K,1,1,1,no,O-B-X,O-B-O,O-B-X,M,stimuli/blue-M.png,mB-R,m0,stimuli/m0_w0_O-B-X.png,stimuli/m0_wW-R_O-B-X.png,stimuli/m0_none_O-B-X.png,stimuli/mW-R_none_O-B-X.png,stimuli/mB-R_none_O-B-X.png,stimuli/mB-R_none_O-B-O.png,stimuli/mB-R_none_O-B-X.png,stimuli/mW-L_none_O-B-X.png,stimuli/m0_none_O-B-X.png,stimuli/m0_wW-L_O-B-X.png,2,24,80,2,,,,,,,,,728.683930870844,735.3563875962282,736.0966459449846,736.0966459449846,736.0966459449846,736.9838604226243,736.9838604226243,left,0.39867429807782173,729.7454858266283,S4,K-M,2023-01-26_13h38.44.480,knowing_that_K_ONLY,2022.2.5,60.00130887670209,
Does Anna know that the book is here?,Does Anna think that the book is here?,Is the book here?,early,2,per_2,per_K,1,1,1,no,X-X-B,O-X-B,X-X-B,R,stimuli/blue-R.png,mB-L,m0,stimuli/m0_w0_X-X-B.png,stimuli/m0_wW-R_X-X-B.png,stimuli/m0_none_X-X-B.png,stimuli/mW-R_none_X-X-B.png,stimuli/mB-L_none_X-X-B.png,stimuli/mB-L_none_O-X-B.png,stimuli/mB-L_none_X-X-B.png,stimuli/mW-L_none_X-X-B.png,stimuli/m0_none_X-X-B.png,stimuli/m0_wW-L_X-X-B.png,2,25,81,1,,,,,,,,,737.4006512933411,744.0758127052104,744.8156334791565,744.8156334791565,744.8156334791565,745.7006231910782,745.7006231910782,left,0.2172684643883258,738.4596330916975,S4,K-M,2023-01-26_13h38.44.480,knowing_that_K_ONLY,2022.2.5,60.00130887670209,
Does Anna know that the book is here?,Does Anna think that the book is here?,Is the book here?,late,13,mem_4,mem_K,1,1,1,no,B-X-O,B-X-O,X-X-O,L,stimuli/blue-L.png,mB-M,m0,stimuli/m0_w0_B-X-O.png,stimuli/mW-R_w0_B-X-O.png,stimuli/mB-M_w0_B-X-O.png,stimuli/mB-M_w0_B-X-O.png,stimuli/mB-M_w0_X-X-O.png,stimuli/mW-L_w0_X-X-O.png,stimuli/m0_wW-R_X-X-O.png,stimuli/m0_none_X-X-O.png,stimuli/m0_none_X-X-O.png,stimuli/m0_wW-L_X-X-O.png,2,26,82,12,,,,,,,,,745.9342826309148,752.6034556211671,753.3446779815713,753.3446779815713,753.3446779815713,754.2340748792049,754.2340748792049,right,0.29965377249754965,746.9865712043829,S4,K-M,2023-01-26_13h38.44.480,knowing_that_K_ONLY,2022.2.5,60.00130887670209,
Does Anna know that the book is here?,Does Anna think that the book is here?,Is the book here?,late,15,mem_6,mem_K,1,1,1,no,X-B-O,X-B-X,X-X-X,M,stimuli/blue-M.png,mB-R,m0,stimuli/m0_w0_X-B-O.png,stimuli/mW-R_w0_X-B-O.png,stimuli/mB-R_w0_X-B-O.png,stimuli/mB-R_w0_X-B-X.png,stimuli/mB-R_w0_X-X-X.png,stimuli/mW-L_w0_X-X-X.png,stimuli/m0_wW-R_X-X-X.png,stimuli/m0_none_X-X-X.png,stimuli/m0_none_X-X-X.png,stimuli/m0_wW-L_X-X-X.png,2,27,83,14,,,,,,,,,754.5507814430166,761.2213592276676,761.9593013818376,761.9593013818376,761.9593013818376,762.8505977514433,762.8505977514433,right,0.3484061392955482,755.604015421588,S4,K-M,2023-01-26_13h38.44.480,knowing_that_K_ONLY,2022.2.5,60.00130887670209,
