K_text,B_text,T_text,Anna_exit,trial_num,trial_code,cond,K_hit,B_hit,T_hit,book_move,start_shelf,mid_shelf,end_shelf,rectangle,rectangle_path,Todd_mid,Todd_final,frame_1,frame_2,frame_3,frame_4,frame_5,frame_6,frame_7,frame_8,frame_9,frame_10,trials.thisRepN,trials.thisTrialN,trials.thisN,trials.thisIndex,frames.thisRepN,frames.thisTrialN,frames.thisN,frames.thisIndex,sessionInst.started,startSession.started,startSession.keys,startSession.rt,crossText.started,movingImage.started,staticImage.started,promptText3.started,rectImage.started,respText.started,keyResp.started,keyResp.keys,keyResp.rt,crossText.stopped,subject,session,date,expName,psychopyVersion,frameRate,
,,,,,,,,,,,,,,,,,,,,,,,,,,,,,,,,,,,,31.05906456534285,31.05906456534285,left,3.0916267859283835,,,,,,,,,,,S4,T-M,2023-01-26_13h51.56.825,knowing_that_K_ONLY,2022.2.5,60.011936206507485,
Does Anna know that the book is here?,Does Anna think that the book is here?,Is the book here?,late,15,mem_6,mem_K,1,1,1,no,X-B-O,X-B-X,X-X-X,M,stimuli/blue-M.png,mB-R,m0,stimuli/m0_w0_X-B-O.png,stimuli/mW-R_w0_X-B-O.png,stimuli/mB-R_w0_X-B-O.png,stimuli/mB-R_w0_X-B-X.png,stimuli/mB-R_w0_X-X-X.png,stimuli/mW-L_w0_X-X-X.png,stimuli/m0_wW-R_X-X-X.png,stimuli/m0_none_X-X-X.png,stimuli/m0_none_X-X-X.png,stimuli/m0_wW-L_X-X-X.png,0,0,0,14,,,,,,,,,34.21430509991478,40.848786500049755,41.609906960860826,41.609906960860826,41.609906960860826,42.47608769708313,42.47608769708313,left,0.017966024461202323,,S4,T-M,2023-01-26_13h51.56.825,knowing_that_K_ONLY,2022.2.5,60.011936206507485,
Does Anna know that the book is here?,Does Anna think that the book is here?,Is the book here?,early,20,no_2,no_K,0,0,0,no,X-O-X,O-O-X,X-O-X,L,stimuli/blue-L.png,mB-L,m0,stimuli/m0_w0_X-O-X.png,stimuli/m0_wW-R_X-O-X.png,stimuli/m0_none_X-O-X.png,stimuli/mW-R_none_X-O-X.png,stimuli/mB-L_none_X-O-X.png,stimuli/mB-L_none_O-O-X.png,stimuli/mB-L_none_X-O-X.png,stimuli/mW-L_none_X-O-X.png,stimuli/m0_none_X-O-X.png,stimuli/m0_wW-L_X-O-X.png,0,1,1,19,,,,,,,,,42.52605141431559,49.17782471468672,49.917008695658296,49.917008695658296,49.917008695658296,50.826573488418944,50.826573488418944,left,1.0920155986677855,43.586216974188574,S4,T-M,2023-01-26_13h51.56.825,knowing_that_K_ONLY,2022.2.5,60.011936206507485,
Does Anna know that the book is here?,Does Anna think that the book is here?,Is the book here?,late,14,mem_5,mem_K,1,1,1,no,O-B-X,O-B-X,O-X-X,M,stimuli/blue-M.png,mB-L,m0,stimuli/m0_w0_O-B-X.png,stimuli/mW-R_w0_O-B-X.png,stimuli/mB-L_w0_O-B-X.png,stimuli/mB-L_w0_O-B-X.png,stimuli/mB-L_w0_O-X-X.png,stimuli/mW-L_w0_O-X-X.png,stimuli/m0_wW-R_O-X-X.png,stimuli/m0_none_O-X-X.png,stimuli/m0_none_O-X-X.png,stimuli/m0_wW-L_O-X-X.png,0,2,2,13,,,,,,,,,51.94293114740867,58.59486420743633,59.333240086678416,59.333240086678416,59.333240086678416,60.24281867407262,60.24281867407262,left,0.28368743567261845,52.99648047494702,S4,T-M,2023-01-26_13h51.56.825,knowing_that_K_ONLY,2022.2.5,60.011936206507485,
Does Anna know that the book is here?,Does Anna think that the book is here?,Is the book here?,early,26,no_8,no_K,0,0,0,hide,X-B-O,O-B-O,X-O-X,R,stimuli/blue-R.png,mB-L,m0,stimuli/m0_w0_X-B-O.png,stimuli/m0_wW-R_X-B-O.png,stimuli/m0_none_X-B-O.png,stimuli/mW-R_none_X-B-O.png,stimuli/mB-L_none_X-B-O.png,stimuli/mB-L_none_O-B-O.png,stimuli/mB-L_none_X-O-X.png,stimuli/mW-L_none_X-O-X.png,stimuli/m0_none_X-O-X.png,stimuli/m0_wW-L_X-O-X.png,0,3,3,25,,,,,,,,,60.54279217578005,67.21615356428083,67.93348928610794,67.93348928610794,67.93348928610794,68.84293826925568,68.84293826925568,right,0.25141501787584275,61.59696289792191,S4,T-M,2023-01-26_13h51.56.825,knowing_that_K_ONLY,2022.2.5,60.011936206507485,
Does Anna know that the book is here?,Does Anna think that the book is here?,Is the book here?,late,12,mem_3,mem_K,1,1,1,no,X-O-B,X-O-B,X-O-X,R,stimuli/blue-R.png,mB-M,m0,stimuli/m0_w0_X-O-B.png,stimuli/mW-R_w0_X-O-B.png,stimuli/mB-M_w0_X-O-B.png,stimuli/mB-M_w0_X-O-B.png,stimuli/mB-M_w0_X-O-X.png,stimuli/mW-L_w0_X-O-X.png,stimuli/m0_wW-R_X-O-X.png,stimuli/m0_none_X-O-X.png,stimuli/m0_none_X-O-X.png,stimuli/m0_wW-L_X-O-X.png,0,4,4,11,,,,,,,,,69.12641385709867,75.80007230886258,76.53918410919141,76.53918410919141,76.53918410919141,77.42594080162235,77.42594080162235,left,0.31672528840135783,70.18497187516186,S4,T-M,2023-01-26_13h51.56.825,knowing_that_K_ONLY,2022.2.5,60.011936206507485,
Does Anna know that the book is here?,Does Anna think that the book is here?,Is the book here?,late,18,mem_9,mem_K,1,1,1,switch,X-O-B,X-B-O,X-X-O,M,stimuli/blue-M.png,mB-L,m0,stimuli/m0_w0_X-O-B.png,stimuli/mW-R_w0_X-O-B.png,stimuli/mB-L_w0_X-O-B.png,stimuli/mB-L_w0_X-B-O.png,stimuli/mB-L_w0_X-X-O.png,stimuli/mW-L_w0_X-X-O.png,stimuli/m0_wW-R_X-X-O.png,stimuli/m0_none_X-X-O.png,stimuli/m0_none_X-X-O.png,stimuli/m0_wW-L_X-X-O.png,0,5,5,17,,,,,,,,,77.75951869343407,84.4347105815541,85.16977738228161,85.16977738228161,85.16977738228161,86.05965740850661,86.05965740850661,left,0.28326173056848347,78.81863170000724,S4,T-M,2023-01-26_13h51.56.825,knowing_that_K_ONLY,2022.2.5,60.011936206507485,
Does Anna know that the book is here?,Does Anna think that the book is here?,Is the book here?,late,10,mem_1,mem_K,1,1,1,no,O-X-B,X-X-B,X-X-X,R,stimuli/blue-R.png,mB-M,m0,stimuli/m0_w0_O-X-B.png,stimuli/mW-R_w0_O-X-B.png,stimuli/mB-M_w0_O-X-B.png,stimuli/mB-M_w0_X-X-B.png,stimuli/mB-M_w0_X-X-X.png,stimuli/mW-L_w0_X-X-X.png,stimuli/m0_wW-R_X-X-X.png,stimuli/m0_none_X-X-X.png,stimuli/m0_none_X-X-X.png,stimuli/m0_wW-L_X-X-X.png,0,6,6,9,,,,,,,,,86.35990166757256,93.03318157233298,93.76990082708653,93.76990082708653,93.76990082708653,94.65971380553674,94.65971380553674,right,0.251441644388251,87.4229550921591,S4,T-M,2023-01-26_13h51.56.825,knowing_that_K_ONLY,2022.2.5,60.011936206507485,
Does Anna know that the book is here?,Does Anna think that the book is here?,Is the book here?,early,22,no_4,no_K,0,0,0,no,O-X-X,O-O-X,O-X-X,M,stimuli/blue-M.png,mB-M,m0,stimuli/m0_w0_O-X-X.png,stimuli/m0_wW-R_O-X-X.png,stimuli/m0_none_O-X-X.png,stimuli/mW-R_none_O-X-X.png,stimuli/mB-M_none_O-X-X.png,stimuli/mB-M_none_O-O-X.png,stimuli/mB-M_none_O-X-X.png,stimuli/mW-L_none_O-X-X.png,stimuli/m0_none_O-X-X.png,stimuli/m0_wW-L_O-X-X.png,0,7,7,21,,,,,,,,,94.94322468177415,101.61819072475191,102.35754056065343,102.35754056065343,102.35754056065343,103.24308750662021,103.24308750662021,right,0.32380892988294363,95.99664183869027,S4,T-M,2023-01-26_13h51.56.825,knowing_that_K_ONLY,2022.2.5,60.011936206507485,
Does Anna know that the book is here?,Does Anna think that the book is here?,Is the book here?,early,3,per_3,per_K,1,1,1,no,O-B-X,O-B-O,O-B-X,M,stimuli/blue-M.png,mB-R,m0,stimuli/m0_w0_O-B-X.png,stimuli/m0_wW-R_O-B-X.png,stimuli/m0_none_O-B-X.png,stimuli/mW-R_none_O-B-X.png,stimuli/mB-R_none_O-B-X.png,stimuli/mB-R_none_O-B-O.png,stimuli/mB-R_none_O-B-X.png,stimuli/mW-L_none_O-B-X.png,stimuli/m0_none_O-B-X.png,stimuli/m0_wW-L_O-B-X.png,0,8,8,2,,,,,,,,,103.59303434961475,110.26854704017751,111.00500099128112,111.00500099128112,111.00500099128112,111.89269859762862,111.89269859762862,left,0.5154721052385867,104.64828842203133,S4,T-M,2023-01-26_13h51.56.825,knowing_that_K_ONLY,2022.2.5,60.011936206507485,
Does Anna know that the book is here?,Does Anna think that the book is here?,Is the book here?,early,7,per_7,per_K,1,1,1,switch,B-X-O,O-X-B,X-X-B,R,stimuli/blue-R.png,mB-R,m0,stimuli/m0_w0_B-X-O.png,stimuli/m0_wW-R_B-X-O.png,stimuli/m0_none_B-X-O.png,stimuli/mW-R_none_B-X-O.png,stimuli/mB-R_none_B-X-O.png,stimuli/mB-R_none_O-X-B.png,stimuli/mB-R_none_X-X-B.png,stimuli/mW-L_none_X-X-B.png,stimuli/m0_none_X-X-B.png,stimuli/m0_wW-L_X-X-B.png,0,9,9,6,,,,,,,,,112.42606398987118,119.10091775201727,119.83598615671508,119.83598615671508,119.83598615671508,120.72652254498098,120.72652254498098,left,0.28770869586151093,113.48534541775007,S4,T-M,2023-01-26_13h51.56.825,knowing_that_K_ONLY,2022.2.5,60.011936206507485,
Does Anna know that the book is here?,Does Anna think that the book is here?,Is the book here?,late,16,mem_7,mem_K,1,1,1,switch,B-X-O,O-X-B,O-X-X,R,stimuli/blue-R.png,mB-M,m0,stimuli/m0_w0_B-X-O.png,stimuli/mW-R_w0_B-X-O.png,stimuli/mB-M_w0_B-X-O.png,stimuli/mB-M_w0_O-X-B.png,stimuli/mB-M_w0_O-X-X.png,stimuli/mW-L_w0_O-X-X.png,stimuli/m0_wW-R_O-X-X.png,stimuli/m0_none_O-X-X.png,stimuli/m0_none_O-X-X.png,stimuli/m0_wW-L_O-X-X.png,0,10,10,15,,,,,,,,,121.04326696356293,127.71555847558193,128.45807944482658,128.45807944482658,128.45807944482658,129.34304734214675,129.34304734214675,left,0.3196548573905602,122.10537979495712,S4,T-M,2023-01-26_13h51.56.825,knowing_that_K_ONLY,2022.2.5,60.011936206507485,
Does Anna know that the book is here?,Does Anna think that the book is here?,Is the book here?,late,6,per_6,per_K,1,1,1,no,X-B-X,O-B-X,X-B-X,M,stimuli/blue-M.png,mB-L,m0,stimuli/m0_w0_X-B-X.png,stimuli/mW-R_w0_X-B-X.png,stimuli/mB-L_w0_X-B-X.png,stimuli/mB-L_w0_O-B-X.png,stimuli/mB-L_w0_X-B-X.png,stimuli/mW-L_w0_X-B-X.png,stimuli/m0_wW-R_X-B-X.png,stimuli/m0_none_X-B-X.png,stimuli/m0_none_X-B-X.png,stimuli/m0_wW-L_X-B-X.png,0,11,11,5,,,,,,,,,129.6930381350685,136.36675240646582,137.10669861431234,137.10669861431234,137.10669861431234,137.99337927647866,137.99337927647866,left,0.3017296929610893,130.75741005816963,S4,T-M,2023-01-26_13h51.56.825,knowing_that_K_ONLY,2022.2.5,60.011936206507485,
Does Anna know that the book is here?,Does Anna think that the book is here?,Is the book here?,early,21,no_3,no_K,0,0,0,no,X-X-O,X-O-O,X-X-O,M,stimuli/blue-M.png,mB-M,m0,stimuli/m0_w0_X-X-O.png,stimuli/m0_wW-R_X-X-O.png,stimuli/m0_none_X-X-O.png,stimuli/mW-R_none_X-X-O.png,stimuli/mB-M_none_X-X-O.png,stimuli/mB-M_none_X-O-O.png,stimuli/mB-M_none_X-X-O.png,stimuli/mW-L_none_X-X-O.png,stimuli/m0_none_X-X-O.png,stimuli/m0_wW-L_X-X-O.png,0,12,12,20,,,,,,,,,138.32639672630467,144.99754393554758,145.74228293378837,145.74228293378837,145.74228293378837,146.62653351644985,146.62653351644985,left,0.2996781605761498,139.38267383805942,S4,T-M,2023-01-26_13h51.56.825,knowing_that_K_ONLY,2022.2.5,60.011936206507485,
Does Anna know that the book is here?,Does Anna think that the book is here?,Is the book here?,early,23,no_5,no_K,0,0,0,no,X-O-X,X-O-O,X-O-X,R,stimuli/blue-R.png,mB-R,m0,stimuli/m0_w0_X-O-X.png,stimuli/m0_wW-R_X-O-X.png,stimuli/m0_none_X-O-X.png,stimuli/mW-R_none_X-O-X.png,stimuli/mB-R_none_X-O-X.png,stimuli/mB-R_none_X-O-O.png,stimuli/mB-R_none_X-O-X.png,stimuli/mW-L_none_X-O-X.png,stimuli/m0_none_X-O-X.png,stimuli/m0_wW-L_X-O-X.png,0,13,13,22,,,,,,,,,146.94330520322546,153.6187110665487,154.35745715198573,154.35745715198573,154.35745715198573,155.24245712952688,155.24245712952688,right,0.3491106287110597,147.99704701232258,S4,T-M,2023-01-26_13h51.56.825,knowing_that_K_ONLY,2022.2.5,60.011936206507485,
Does Anna know that the book is here?,Does Anna think that the book is here?,Is the book here?,late,17,mem_8,mem_K,1,1,1,switch,O-X-B,B-X-O,X-X-O,L,stimuli/blue-L.png,mB-M,m0,stimuli/m0_w0_O-X-B.png,stimuli/mW-R_w0_O-X-B.png,stimuli/mB-M_w0_O-X-B.png,stimuli/mB-M_w0_B-X-O.png,stimuli/mB-M_w0_X-X-O.png,stimuli/mW-L_w0_X-X-O.png,stimuli/m0_wW-R_X-X-O.png,stimuli/m0_none_X-X-O.png,stimuli/m0_none_X-X-O.png,stimuli/m0_wW-L_X-X-O.png,0,14,14,16,,,,,,,,,155.60989861993585,162.2837155482266,163.0228238196578,163.0228238196578,163.0228238196578,163.90944192535244,163.90944192535244,left,0.2978896863060072,156.66981587850023,S4,T-M,2023-01-26_13h51.56.825,knowing_that_K_ONLY,2022.2.5,60.011936206507485,
Does Anna know that the book is here?,Does Anna think that the book is here?,Is the book here?,early,8,per_8,per_K,1,1,1,switch,O-X-B,B-X-O,B-X-X,L,stimuli/blue-L.png,mB-L,m0,stimuli/m0_w0_O-X-B.png,stimuli/m0_wW-R_O-X-B.png,stimuli/m0_none_O-X-B.png,stimuli/mW-R_none_O-X-B.png,stimuli/mB-L_none_O-X-B.png,stimuli/mB-L_none_B-X-O.png,stimuli/mB-L_none_B-X-X.png,stimuli/mW-L_none_B-X-X.png,stimuli/m0_none_B-X-X.png,stimuli/m0_wW-L_B-X-X.png,0,15,15,7,,,,,,,,,164.22625018365216,170.9018196563702,171.63892194931395,171.63892194931395,171.63892194931395,172.52662372612394,172.52662372612394,left,0.3040189401945099,165.28310249443166,S4,T-M,2023-01-26_13h51.56.825,knowing_that_K_ONLY,2022.2.5,60.011936206507485,
Does Anna know that the book is here?,Does Anna think that the book is here?,Is the book here?,late,13,mem_4,mem_K,1,1,1,no,B-X-O,B-X-O,X-X-O,L,stimuli/blue-L.png,mB-M,m0,stimuli/m0_w0_B-X-O.png,stimuli/mW-R_w0_B-X-O.png,stimuli/mB-M_w0_B-X-O.png,stimuli/mB-M_w0_B-X-O.png,stimuli/mB-M_w0_X-X-O.png,stimuli/mW-L_w0_X-X-O.png,stimuli/m0_wW-R_X-X-O.png,stimuli/m0_none_X-X-O.png,stimuli/m0_none_X-X-O.png,stimuli/m0_wW-L_X-X-O.png,0,16,16,12,,,,,,,,,172.8596960331779,179.53381515736692,180.2734071991872,180.2734071991872,180.2734071991872,181.15998777095228,181.15998777095228,left,0.2866202127188444,173.922710961313,S4,T-M,2023-01-26_13h51.56.825,knowing_that_K_ONLY,2022.2.5,60.011936206507485,
Does Anna know that the book is here?,Does Anna think that the book is here?,Is the book here?,late,11,mem_2,mem_K,1,1,1,no,O-B-O,O-B-X,O-X-X,M,stimuli/blue-M.png,mB-L,m0,stimuli/m0_w0_O-B-O.png,stimuli/mW-R_w0_O-B-O.png,stimuli/mB-L_w0_O-B-O.png,stimuli/mB-L_w0_O-B-X.png,stimuli/mB-L_w0_O-X-X.png,stimuli/mW-L_w0_O-X-X.png,stimuli/m0_wW-R_O-X-X.png,stimuli/m0_none_O-X-X.png,stimuli/m0_none_O-X-X.png,stimuli/m0_wW-L_O-X-X.png,0,17,17,10,,,,,,,,,181.4765958484495,188.1496255270904,188.88980303367134,188.88980303367134,188.88980303367134,189.7764666932635,189.7764666932635,left,0.2787897427333519,182.5317902516108,S4,T-M,2023-01-26_13h51.56.825,knowing_that_K_ONLY,2022.2.5,60.011936206507485,
Does Anna know that the book is here?,Does Anna think that the book is here?,Is the book here?,early,19,no_1,no_K,0,0,0,no,X-X-X,O-X-X,X-X-X,L,stimuli/blue-L.png,mB-L,m0,stimuli/m0_w0_X-X-X.png,stimuli/m0_wW-R_X-X-X.png,stimuli/m0_none_X-X-X.png,stimuli/mW-R_none_X-X-X.png,stimuli/mB-L_none_X-X-X.png,stimuli/mB-L_none_O-X-X.png,stimuli/mB-L_none_X-X-X.png,stimuli/mW-L_none_X-X-X.png,stimuli/m0_none_X-X-X.png,stimuli/m0_wW-L_X-X-X.png,0,18,18,18,,,,,,,,,190.07652809494175,196.7496389367152,197.48932593606878,197.48932593606878,197.48932593606878,198.37653496011626,198.37653496011626,right,0.2865358416456729,191.12890905945096,S4,T-M,2023-01-26_13h51.56.825,knowing_that_K_ONLY,2022.2.5,60.011936206507485,
Does Anna know that the book is here?,Does Anna think that the book is here?,Is the book here?,early,28,no_10,no_K,0,0,0,hide,O-B-O,O-B-O,X-O-X,L,stimuli/blue-L.png,mB-M,m0,stimuli/m0_w0_O-B-O.png,stimuli/m0_wW-R_O-B-O.png,stimuli/m0_none_O-B-O.png,stimuli/mW-R_none_O-B-O.png,stimuli/mB-M_none_O-B-O.png,stimuli/mB-M_none_O-B-O.png,stimuli/mB-M_none_X-O-X.png,stimuli/mW-L_none_X-O-X.png,stimuli/m0_none_X-O-X.png,stimuli/m0_wW-L_X-O-X.png,0,19,19,27,,,,,,,,,198.69331145880278,205.36462195659988,206.10273189051077,206.10273189051077,206.10273189051077,206.99317011318635,206.99317011318635,right,0.3897611266002059,199.75271094206255,S4,T-M,2023-01-26_13h51.56.825,knowing_that_K_ONLY,2022.2.5,60.011936206507485,
Does Anna know that the book is here?,Does Anna think that the book is here?,Is the book here?,early,24,no_6,no_K,0,0,0,no,X-X-X,X-X-O,X-X-X,R,stimuli/blue-R.png,mB-R,m0,stimuli/m0_w0_X-X-X.png,stimuli/m0_wW-R_X-X-X.png,stimuli/m0_none_X-X-X.png,stimuli/mW-R_none_X-X-X.png,stimuli/mB-R_none_X-X-X.png,stimuli/mB-R_none_X-X-O.png,stimuli/mB-R_none_X-X-X.png,stimuli/mW-L_none_X-X-X.png,stimuli/m0_none_X-X-X.png,stimuli/m0_wW-L_X-X-X.png,0,20,20,23,,,,,,,,,207.41000878356863,214.08067671372555,214.82187854289077,214.82187854289077,214.82187854289077,215.7099858140573,215.7099858140573,right,0.5212045264197513,208.46940377552528,S4,T-M,2023-01-26_13h51.56.825,knowing_that_K_ONLY,2022.2.5,60.011936206507485,
Does Anna know that the book is here?,Does Anna think that the book is here?,Is the book here?,early,9,per_9,per_K,1,1,1,switch,X-O-B,X-B-O,X-B-X,M,stimuli/blue-M.png,mB-R,m0,stimuli/m0_w0_X-O-B.png,stimuli/m0_wW-R_X-O-B.png,stimuli/m0_none_X-O-B.png,stimuli/mW-R_none_X-O-B.png,stimuli/mB-R_none_X-O-B.png,stimuli/mB-R_none_X-B-O.png,stimuli/mB-R_none_X-B-X.png,stimuli/mW-L_none_X-B-X.png,stimuli/m0_none_X-B-X.png,stimuli/m0_wW-L_X-B-X.png,0,21,21,8,,,,,,,,,216.25927392113954,222.91860244283453,223.67488391755614,223.67488391755614,223.67488391755614,224.542981770006,224.542981770006,left,0.28035205125343055,217.3226186343236,S4,T-M,2023-01-26_13h51.56.825,knowing_that_K_ONLY,2022.2.5,60.011936206507485,
Does Anna know that the book is here?,Does Anna think that the book is here?,Is the book here?,late,5,per_5,per_K,1,1,1,no,X-B-O,O-B-O,X-B-O,M,stimuli/blue-M.png,mB-L,m0,stimuli/m0_w0_X-B-O.png,stimuli/mW-R_w0_X-B-O.png,stimuli/mB-L_w0_X-B-O.png,stimuli/mB-L_w0_O-B-O.png,stimuli/mB-L_w0_X-B-O.png,stimuli/mW-L_w0_X-B-O.png,stimuli/m0_wW-R_X-B-O.png,stimuli/m0_none_X-B-O.png,stimuli/m0_none_X-B-O.png,stimuli/m0_wW-L_X-B-O.png,0,22,22,4,,,,,,,,,224.84298029437196,231.51695441582706,232.25620448205154,232.25620448205154,232.25620448205154,233.1433005837025,233.1433005837025,left,0.28760315175168216,225.89481685694773,S4,T-M,2023-01-26_13h51.56.825,knowing_that_K_ONLY,2022.2.5,60.011936206507485,
Does Anna know that the book is here?,Does Anna think that the book is here?,Is the book here?,early,1,per_1,per_K,1,1,1,no,B-X-X,B-O-X,B-X-X,L,stimuli/blue-L.png,mB-M,m0,stimuli/m0_w0_B-X-X.png,stimuli/m0_wW-R_B-X-X.png,stimuli/m0_none_B-X-X.png,stimuli/mW-R_none_B-X-X.png,stimuli/mB-M_none_B-X-X.png,stimuli/mB-M_none_B-O-X.png,stimuli/mB-M_none_B-X-X.png,stimuli/mW-L_none_B-X-X.png,stimuli/m0_none_B-X-X.png,stimuli/m0_wW-L_B-X-X.png,0,23,23,0,,,,,,,,,233.4600504557602,240.13517978740856,240.8729718059767,240.8729718059767,240.8729718059767,241.76004994253162,241.76004994253162,left,0.35098860692232847,234.5139757640427,S4,T-M,2023-01-26_13h51.56.825,knowing_that_K_ONLY,2022.2.5,60.011936206507485,
Does Anna know that the book is here?,Does Anna think that the book is here?,Is the book here?,early,2,per_2,per_K,1,1,1,no,X-X-B,O-X-B,X-X-B,R,stimuli/blue-R.png,mB-L,m0,stimuli/m0_w0_X-X-B.png,stimuli/m0_wW-R_X-X-B.png,stimuli/m0_none_X-X-B.png,stimuli/mW-R_none_X-X-B.png,stimuli/mB-L_none_X-X-B.png,stimuli/mB-L_none_O-X-B.png,stimuli/mB-L_none_X-X-B.png,stimuli/mW-L_none_X-X-B.png,stimuli/m0_none_X-X-B.png,stimuli/m0_wW-L_X-X-B.png,0,24,24,1,,,,,,,,,242.1432040220825,248.81735971779563,249.55747659259941,249.55747659259941,249.55747659259941,250.4431813734118,250.4431813734118,left,0.26877043687272817,243.200517967809,S4,T-M,2023-01-26_13h51.56.825,knowing_that_K_ONLY,2022.2.5,60.011936206507485,
Does Anna know that the book is here?,Does Anna think that the book is here?,Is the book here?,early,27,no_9,no_K,0,0,0,hide,X-X-B,O-O-B,X-X-O,L,stimuli/blue-L.png,mB-M,m0,stimuli/m0_w0_X-X-B.png,stimuli/m0_wW-R_X-X-B.png,stimuli/m0_none_X-X-B.png,stimuli/mW-R_none_X-X-B.png,stimuli/mB-M_none_X-X-B.png,stimuli/mB-M_none_O-O-B.png,stimuli/mB-M_none_X-X-O.png,stimuli/mW-L_none_X-X-O.png,stimuli/m0_none_X-X-O.png,stimuli/m0_wW-L_X-X-O.png,0,25,25,26,,,,,,,,,250.74302238365635,257.4194294718327,258.15520941664,258.15520941664,258.15520941664,259.04335935472045,259.04335935472045,right,0.31580458499956876,251.8021013851976,S4,T-M,2023-01-26_13h51.56.825,knowing_that_K_ONLY,2022.2.5,60.011936206507485,
Does Anna know that the book is here?,Does Anna think that the book is here?,Is the book here?,early,25,no_7,no_K,0,0,0,hide,B-X-X,B-O-O,O-X-X,M,stimuli/blue-M.png,mB-L,m0,stimuli/m0_w0_B-X-X.png,stimuli/m0_wW-R_B-X-X.png,stimuli/m0_none_B-X-X.png,stimuli/mW-R_none_B-X-X.png,stimuli/mB-L_none_B-X-X.png,stimuli/mB-L_none_B-O-O.png,stimuli/mB-L_none_O-X-X.png,stimuli/mW-L_none_O-X-X.png,stimuli/m0_none_O-X-X.png,stimuli/m0_wW-L_O-X-X.png,0,26,26,24,,,,,,,,,259.3766350505175,266.0487645572284,266.78807782160584,266.78807782160584,266.78807782160584,267.6767471388448,267.6767471388448,right,0.3461823428515345,260.4411702620564,S4,T-M,2023-01-26_13h51.56.825,knowing_that_K_ONLY,2022.2.5,60.011936206507485,
Does Anna know that the book is here?,Does Anna think that the book is here?,Is the book here?,late,4,per_4,per_K,1,1,1,no,O-X-B,O-O-B,O-X-B,R,stimuli/blue-R.png,mB-M,m0,stimuli/m0_w0_O-X-B.png,stimuli/mW-R_w0_O-X-B.png,stimuli/mB-M_w0_O-X-B.png,stimuli/mB-M_w0_O-O-B.png,stimuli/mB-M_w0_O-X-B.png,stimuli/mW-L_w0_O-X-B.png,stimuli/m0_wW-R_O-X-B.png,stimuli/m0_none_O-X-B.png,stimuli/m0_none_O-X-B.png,stimuli/m0_wW-L_O-X-B.png,0,27,27,3,,,,,,,,,268.04328204120975,274.71780088555533,275.45610426343046,275.45610426343046,275.45610426343046,276.34328890638426,276.34328890638426,left,0.2875014573801309,269.1011955670547,S4,T-M,2023-01-26_13h51.56.825,knowing_that_K_ONLY,2022.2.5,60.011936206507485,
Does Anna know that the book is here?,Does Anna think that the book is here?,Is the book here?,early,8,per_8,per_K,1,1,1,switch,O-X-B,B-X-O,B-X-X,L,stimuli/blue-L.png,mB-L,m0,stimuli/m0_w0_O-X-B.png,stimuli/m0_wW-R_O-X-B.png,stimuli/m0_none_O-X-B.png,stimuli/mW-R_none_O-X-B.png,stimuli/mB-L_none_O-X-B.png,stimuli/mB-L_none_B-X-O.png,stimuli/mB-L_none_B-X-X.png,stimuli/mW-L_none_B-X-X.png,stimuli/m0_none_B-X-X.png,stimuli/m0_wW-L_B-X-X.png,1,0,28,7,,,,,,,,,276.6600904278457,283.33425093558617,284.072758023045,284.072758023045,284.072758023045,284.95978900173213,284.95978900173213,left,0.2640998722054064,277.71343732893,S4,T-M,2023-01-26_13h51.56.825,knowing_that_K_ONLY,2022.2.5,60.011936206507485,
Does Anna know that the book is here?,Does Anna think that the book is here?,Is the book here?,early,25,no_7,no_K,0,0,0,hide,B-X-X,B-O-O,O-X-X,M,stimuli/blue-M.png,mB-L,m0,stimuli/m0_w0_B-X-X.png,stimuli/m0_wW-R_B-X-X.png,stimuli/m0_none_B-X-X.png,stimuli/mW-R_none_B-X-X.png,stimuli/mB-L_none_B-X-X.png,stimuli/mB-L_none_B-O-O.png,stimuli/mB-L_none_O-X-X.png,stimuli/mW-L_none_O-X-X.png,stimuli/m0_none_O-X-X.png,stimuli/m0_wW-L_O-X-X.png,1,1,29,24,,,,,,,,,285.2429569399683,291.91579926991835,292.6560656387592,292.6560656387592,292.6560656387592,293.54327049234416,293.54327049234416,right,0.3353247798513621,286.2969287644373,S4,T-M,2023-01-26_13h51.56.825,knowing_that_K_ONLY,2022.2.5,60.011936206507485,
Does Anna know that the book is here?,Does Anna think that the book is here?,Is the book here?,early,19,no_1,no_K,0,0,0,no,X-X-X,O-X-X,X-X-X,L,stimuli/blue-L.png,mB-L,m0,stimuli/m0_w0_X-X-X.png,stimuli/m0_wW-R_X-X-X.png,stimuli/m0_none_X-X-X.png,stimuli/mW-R_none_X-X-X.png,stimuli/mB-L_none_X-X-X.png,stimuli/mB-L_none_O-X-X.png,stimuli/mB-L_none_X-X-X.png,stimuli/mW-L_none_X-X-X.png,stimuli/m0_none_X-X-X.png,stimuli/m0_wW-L_X-X-X.png,1,2,30,18,,,,,,,,,293.90998857293744,300.58502070140094,301.3217704324052,301.3217704324052,301.3217704324052,302.21006248588674,302.21006248588674,right,0.6457529165782034,294.97232853260357,S4,T-M,2023-01-26_13h51.56.825,knowing_that_K_ONLY,2022.2.5,60.011936206507485,
Does Anna know that the book is here?,Does Anna think that the book is here?,Is the book here?,early,3,per_3,per_K,1,1,1,no,O-B-X,O-B-O,O-B-X,M,stimuli/blue-M.png,mB-R,m0,stimuli/m0_w0_O-B-X.png,stimuli/m0_wW-R_O-B-X.png,stimuli/m0_none_O-B-X.png,stimuli/mW-R_none_O-B-X.png,stimuli/mB-R_none_O-B-X.png,stimuli/mB-R_none_O-B-O.png,stimuli/mB-R_none_O-B-X.png,stimuli/mW-L_none_O-B-X.png,stimuli/m0_none_O-B-X.png,stimuli/m0_wW-L_O-B-X.png,1,3,31,2,,,,,,,,,302.87688463483937,309.55322916654404,310.2885933512589,310.2885933512589,310.2885933512589,311.17667720397003,311.17667720397003,left,0.33525741135235876,303.9418997671455,S4,T-M,2023-01-26_13h51.56.825,knowing_that_K_ONLY,2022.2.5,60.011936206507485,
Does Anna know that the book is here?,Does Anna think that the book is here?,Is the book here?,early,27,no_9,no_K,0,0,0,hide,X-X-B,O-O-B,X-X-O,L,stimuli/blue-L.png,mB-M,m0,stimuli/m0_w0_X-X-B.png,stimuli/m0_wW-R_X-X-B.png,stimuli/m0_none_X-X-B.png,stimuli/mW-R_none_X-X-B.png,stimuli/mB-M_none_X-X-B.png,stimuli/mB-M_none_O-O-B.png,stimuli/mB-M_none_X-X-O.png,stimuli/mW-L_none_X-X-O.png,stimuli/m0_none_X-X-O.png,stimuli/m0_wW-L_X-X-O.png,1,4,32,26,,,,,,,,,311.5433465226088,318.195234991028,318.9334633011604,318.9334633011604,318.9334633011604,319.84346278139856,319.84346278139856,right,0.41989122482482344,312.5979320424376,S4,T-M,2023-01-26_13h51.56.825,knowing_that_K_ONLY,2022.2.5,60.011936206507485,
Does Anna know that the book is here?,Does Anna think that the book is here?,Is the book here?,late,17,mem_8,mem_K,1,1,1,switch,O-X-B,B-X-O,X-X-O,L,stimuli/blue-L.png,mB-M,m0,stimuli/m0_w0_O-X-B.png,stimuli/mW-R_w0_O-X-B.png,stimuli/mB-M_w0_O-X-B.png,stimuli/mB-M_w0_B-X-O.png,stimuli/mB-M_w0_X-X-O.png,stimuli/mW-L_w0_X-X-O.png,stimuli/m0_wW-R_X-X-O.png,stimuli/m0_none_X-X-O.png,stimuli/m0_none_X-X-O.png,stimuli/m0_wW-L_X-X-O.png,1,5,33,16,,,,,,,,,320.2935080466559,326.965335998917,327.7022426024778,327.7022426024778,327.7022426024778,328.5933535482036,328.5933535482036,left,0.22967615234665573,321.3503818513127,S4,T-M,2023-01-26_13h51.56.825,knowing_that_K_ONLY,2022.2.5,60.011936206507485,
Does Anna know that the book is here?,Does Anna think that the book is here?,Is the book here?,late,4,per_4,per_K,1,1,1,no,O-X-B,O-O-B,O-X-B,R,stimuli/blue-R.png,mB-M,m0,stimuli/m0_w0_O-X-B.png,stimuli/mW-R_w0_O-X-B.png,stimuli/mB-M_w0_O-X-B.png,stimuli/mB-M_w0_O-O-B.png,stimuli/mB-M_w0_O-X-B.png,stimuli/mW-L_w0_O-X-B.png,stimuli/m0_wW-R_O-X-B.png,stimuli/m0_none_O-X-B.png,stimuli/m0_none_O-X-B.png,stimuli/m0_wW-L_O-X-B.png,1,6,34,3,,,,,,,,,328.8433556333184,335.5196459494764,336.25761344702914,336.25761344702914,336.25761344702914,337.1435241830768,337.1435241830768,left,0.23953666107263416,329.90047132316977,S4,T-M,2023-01-26_13h51.56.825,knowing_that_K_ONLY,2022.2.5,60.011936206507485,
Does Anna know that the book is here?,Does Anna think that the book is here?,Is the book here?,early,26,no_8,no_K,0,0,0,hide,X-B-O,O-B-O,X-O-X,R,stimuli/blue-R.png,mB-L,m0,stimuli/m0_w0_X-B-O.png,stimuli/m0_wW-R_X-B-O.png,stimuli/m0_none_X-B-O.png,stimuli/mW-R_none_X-B-O.png,stimuli/mB-L_none_X-B-O.png,stimuli/mB-L_none_O-B-O.png,stimuli/mB-L_none_X-O-X.png,stimuli/mW-L_none_X-O-X.png,stimuli/m0_none_X-O-X.png,stimuli/m0_wW-L_X-O-X.png,1,7,35,25,,,,,,,,,337.4101512199268,344.0816833921708,344.8245527531253,344.8245527531253,344.8245527531253,345.7101452529896,345.7101452529896,right,0.3771949690999463,338.4709750665352,S4,T-M,2023-01-26_13h51.56.825,knowing_that_K_ONLY,2022.2.5,60.011936206507485,
Does Anna know that the book is here?,Does Anna think that the book is here?,Is the book here?,late,10,mem_1,mem_K,1,1,1,no,O-X-B,X-X-B,X-X-X,R,stimuli/blue-R.png,mB-M,m0,stimuli/m0_w0_O-X-B.png,stimuli/mW-R_w0_O-X-B.png,stimuli/mB-M_w0_O-X-B.png,stimuli/mB-M_w0_X-X-B.png,stimuli/mB-M_w0_X-X-X.png,stimuli/mW-L_w0_X-X-X.png,stimuli/m0_wW-R_X-X-X.png,stimuli/m0_none_X-X-X.png,stimuli/m0_none_X-X-X.png,stimuli/m0_wW-L_X-X-X.png,1,8,36,9,,,,,,,,,346.1100542092463,352.7829552460462,353.521718654898,353.521718654898,353.521718654898,354.4102176260203,354.4102176260203,right,0.3169482462108135,347.17476714542136,S4,T-M,2023-01-26_13h51.56.825,knowing_that_K_ONLY,2022.2.5,60.011936206507485,
Does Anna know that the book is here?,Does Anna think that the book is here?,Is the book here?,early,1,per_1,per_K,1,1,1,no,B-X-X,B-O-X,B-X-X,L,stimuli/blue-L.png,mB-M,m0,stimuli/m0_w0_B-X-X.png,stimuli/m0_wW-R_B-X-X.png,stimuli/m0_none_B-X-X.png,stimuli/mW-R_none_B-X-X.png,stimuli/mB-M_none_B-X-X.png,stimuli/mB-M_none_B-O-X.png,stimuli/mB-M_none_B-X-X.png,stimuli/mW-L_none_B-X-X.png,stimuli/m0_none_B-X-X.png,stimuli/m0_wW-L_B-X-X.png,1,9,37,0,,,,,,,,,354.7434525799472,361.41622176696546,362.15679353976157,362.15679353976157,362.15679353976157,363.04341485351324,363.04341485351324,left,0.23528249806258827,355.79717482009437,S4,T-M,2023-01-26_13h51.56.825,knowing_that_K_ONLY,2022.2.5,60.011936206507485,
Does Anna know that the book is here?,Does Anna think that the book is here?,Is the book here?,late,18,mem_9,mem_K,1,1,1,switch,X-O-B,X-B-O,X-X-O,M,stimuli/blue-M.png,mB-L,m0,stimuli/m0_w0_X-O-B.png,stimuli/mW-R_w0_X-O-B.png,stimuli/mB-L_w0_X-O-B.png,stimuli/mB-L_w0_X-B-O.png,stimuli/mB-L_w0_X-X-O.png,stimuli/mW-L_w0_X-X-O.png,stimuli/m0_wW-R_X-X-O.png,stimuli/m0_none_X-X-O.png,stimuli/m0_none_X-X-O.png,stimuli/m0_wW-L_X-X-O.png,1,10,38,17,,,,,,,,,363.31007461226545,369.9854881748324,370.72108718706295,370.72108718706295,370.72108718706295,371.61017803894356,371.61017803894356,left,0.2933131167665124,364.3642700362252,S4,T-M,2023-01-26_13h51.56.825,knowing_that_K_ONLY,2022.2.5,60.011936206507485,
Does Anna know that the book is here?,Does Anna think that the book is here?,Is the book here?,late,13,mem_4,mem_K,1,1,1,no,B-X-O,B-X-O,X-X-O,L,stimuli/blue-L.png,mB-M,m0,stimuli/m0_w0_B-X-O.png,stimuli/mW-R_w0_B-X-O.png,stimuli/mB-M_w0_B-X-O.png,stimuli/mB-M_w0_B-X-O.png,stimuli/mB-M_w0_X-X-O.png,stimuli/mW-L_w0_X-X-O.png,stimuli/m0_wW-R_X-X-O.png,stimuli/m0_none_X-X-O.png,stimuli/m0_none_X-X-O.png,stimuli/m0_wW-L_X-X-O.png,1,11,39,12,,,,,,,,,371.9266873091692,378.6019914781209,379.31574351445306,379.31574351445306,379.31574351445306,380.2269338138867,380.2269338138867,right,0.3407819524873048,372.98822205443867,S4,T-M,2023-01-26_13h51.56.825,knowing_that_K_ONLY,2022.2.5,60.011936206507485,
Does Anna know that the book is here?,Does Anna think that the book is here?,Is the book here?,early,24,no_6,no_K,0,0,0,no,X-X-X,X-X-O,X-X-X,R,stimuli/blue-R.png,mB-R,m0,stimuli/m0_w0_X-X-X.png,stimuli/m0_wW-R_X-X-X.png,stimuli/m0_none_X-X-X.png,stimuli/mW-R_none_X-X-X.png,stimuli/mB-R_none_X-X-X.png,stimuli/mB-R_none_X-X-O.png,stimuli/mB-R_none_X-X-X.png,stimuli/mW-L_none_X-X-X.png,stimuli/m0_none_X-X-X.png,stimuli/m0_wW-L_X-X-X.png,1,12,40,23,,,,,,,,,380.5933875532355,387.26731964957435,388.002195893554,388.002195893554,388.002195893554,388.8936590804951,388.8936590804951,right,0.22580791485961527,381.65855185862165,S4,T-M,2023-01-26_13h51.56.825,knowing_that_K_ONLY,2022.2.5,60.011936206507485,
Does Anna know that the book is here?,Does Anna think that the book is here?,Is the book here?,early,21,no_3,no_K,0,0,0,no,X-X-O,X-O-O,X-X-O,M,stimuli/blue-M.png,mB-M,m0,stimuli/m0_w0_X-X-O.png,stimuli/m0_wW-R_X-X-O.png,stimuli/m0_none_X-X-O.png,stimuli/mW-R_none_X-X-O.png,stimuli/mB-M_none_X-X-O.png,stimuli/mB-M_none_X-O-O.png,stimuli/mB-M_none_X-X-O.png,stimuli/mW-L_none_X-X-O.png,stimuli/m0_none_X-X-O.png,stimuli/m0_wW-L_X-X-O.png,1,13,41,20,,,,,,,,,389.1434616264887,395.8164781524101,396.55717279261444,396.55717279261444,396.55717279261444,397.44357403577305,397.44357403577305,right,0.2598062506876886,390.2068012069212,S4,T-M,2023-01-26_13h51.56.825,knowing_that_K_ONLY,2022.2.5,60.011936206507485,
Does Anna know that the book is here?,Does Anna think that the book is here?,Is the book here?,late,6,per_6,per_K,1,1,1,no,X-B-X,O-B-X,X-B-X,M,stimuli/blue-M.png,mB-L,m0,stimuli/m0_w0_X-B-X.png,stimuli/mW-R_w0_X-B-X.png,stimuli/mB-L_w0_X-B-X.png,stimuli/mB-L_w0_O-B-X.png,stimuli/mB-L_w0_X-B-X.png,stimuli/mW-L_w0_X-B-X.png,stimuli/m0_wW-R_X-B-X.png,stimuli/m0_none_X-B-X.png,stimuli/m0_none_X-B-X.png,stimuli/m0_wW-L_X-B-X.png,1,14,42,5,,,,,,,,,397.72708619514015,404.39993494120426,405.1428415151313,405.1428415151313,405.1428415151313,406.0267469143728,406.0267469143728,left,0.5722310625715181,398.7821516356198,S4,T-M,2023-01-26_13h51.56.825,knowing_that_K_ONLY,2022.2.5,60.011936206507485,
Does Anna know that the book is here?,Does Anna think that the book is here?,Is the book here?,early,2,per_2,per_K,1,1,1,no,X-X-B,O-X-B,X-X-B,R,stimuli/blue-R.png,mB-L,m0,stimuli/m0_w0_X-X-B.png,stimuli/m0_wW-R_X-X-B.png,stimuli/m0_none_X-X-B.png,stimuli/mW-R_none_X-X-B.png,stimuli/mB-L_none_X-X-B.png,stimuli/mB-L_none_O-X-B.png,stimuli/mB-L_none_X-X-B.png,stimuli/mW-L_none_X-X-B.png,stimuli/m0_none_X-X-B.png,stimuli/m0_wW-L_X-X-B.png,1,15,43,1,,,,,,,,,406.6269114218885,413.30167215131223,414.041806670255,414.041806670255,414.041806670255,414.9268313496141,414.9268313496141,left,0.3363462152192369,407.68092078040354,S4,T-M,2023-01-26_13h51.56.825,knowing_that_K_ONLY,2022.2.5,60.011936206507485,
Does Anna know that the book is here?,Does Anna think that the book is here?,Is the book here?,early,22,no_4,no_K,0,0,0,no,O-X-X,O-O-X,O-X-X,M,stimuli/blue-M.png,mB-M,m0,stimuli/m0_w0_O-X-X.png,stimuli/m0_wW-R_O-X-X.png,stimuli/m0_none_O-X-X.png,stimuli/mW-R_none_O-X-X.png,stimuli/mB-M_none_O-X-X.png,stimuli/mB-M_none_O-O-X.png,stimuli/mB-M_none_O-X-X.png,stimuli/mW-L_none_O-X-X.png,stimuli/m0_none_O-X-X.png,stimuli/m0_wW-L_O-X-X.png,1,16,44,21,,,,,,,,,415.2934913649224,421.9448630204424,422.6837602038868,422.6837602038868,422.6837602038868,423.59349919250235,423.59349919250235,right,0.4138912543421611,416.35198329773266,S4,T-M,2023-01-26_13h51.56.825,knowing_that_K_ONLY,2022.2.5,60.011936206507485,
Does Anna know that the book is here?,Does Anna think that the book is here?,Is the book here?,early,28,no_10,no_K,0,0,0,hide,O-B-O,O-B-O,X-O-X,L,stimuli/blue-L.png,mB-M,m0,stimuli/m0_w0_O-B-O.png,stimuli/m0_wW-R_O-B-O.png,stimuli/m0_none_O-B-O.png,stimuli/mW-R_none_O-B-O.png,stimuli/mB-M_none_O-B-O.png,stimuli/mB-M_none_O-B-O.png,stimuli/mB-M_none_X-O-X.png,stimuli/mW-L_none_X-O-X.png,stimuli/m0_none_X-O-X.png,stimuli/m0_wW-L_X-O-X.png,1,17,45,27,,,,,,,,,424.0267722577555,430.7019080054015,431.44206081004813,431.44206081004813,431.44206081004813,432.3269587723771,432.3269587723771,right,0.23174115852452815,425.06380378175527,S4,T-M,2023-01-26_13h51.56.825,knowing_that_K_ONLY,2022.2.5,60.011936206507485,
Does Anna know that the book is here?,Does Anna think that the book is here?,Is the book here?,late,5,per_5,per_K,1,1,1,no,X-B-O,O-B-O,X-B-O,M,stimuli/blue-M.png,mB-L,m0,stimuli/m0_w0_X-B-O.png,stimuli/mW-R_w0_X-B-O.png,stimuli/mB-L_w0_X-B-O.png,stimuli/mB-L_w0_O-B-O.png,stimuli/mB-L_w0_X-B-O.png,stimuli/mW-L_w0_X-B-O.png,stimuli/m0_wW-R_X-B-O.png,stimuli/m0_none_X-B-O.png,stimuli/m0_none_X-B-O.png,stimuli/m0_wW-L_X-B-O.png,1,18,46,4,,,,,,,,,432.57682066690177,439.2511518415995,439.98745565710124,439.98745565710124,439.98745565710124,440.8771993422415,440.8771993422415,left,0.7700497974874452,433.64132187340874,S4,T-M,2023-01-26_13h51.56.825,knowing_that_K_ONLY,2022.2.5,60.011936206507485,
Does Anna know that the book is here?,Does Anna think that the book is here?,Is the book here?,early,23,no_5,no_K,0,0,0,no,X-O-X,X-O-O,X-O-X,R,stimuli/blue-R.png,mB-R,m0,stimuli/m0_w0_X-O-X.png,stimuli/m0_wW-R_X-O-X.png,stimuli/m0_none_X-O-X.png,stimuli/mW-R_none_X-O-X.png,stimuli/mB-R_none_X-O-X.png,stimuli/mB-R_none_X-O-O.png,stimuli/mB-R_none_X-O-X.png,stimuli/mW-L_none_X-O-X.png,stimuli/m0_none_X-O-X.png,stimuli/m0_wW-L_X-O-X.png,1,19,47,22,,,,,,,,,441.6768610237632,448.3509413310094,449.08722108625807,449.08722108625807,449.08722108625807,449.97713575907983,449.97713575907983,right,0.21461703802924603,442.73110777616967,S4,T-M,2023-01-26_13h51.56.825,knowing_that_K_ONLY,2022.2.5,60.011936206507485,
Does Anna know that the book is here?,Does Anna think that the book is here?,Is the book here?,late,14,mem_5,mem_K,1,1,1,no,O-B-X,O-B-X,O-X-X,M,stimuli/blue-M.png,mB-L,m0,stimuli/m0_w0_O-B-X.png,stimuli/mW-R_w0_O-B-X.png,stimuli/mB-L_w0_O-B-X.png,stimuli/mB-L_w0_O-B-X.png,stimuli/mB-L_w0_O-X-X.png,stimuli/mW-L_w0_O-X-X.png,stimuli/m0_wW-R_O-X-X.png,stimuli/m0_none_O-X-X.png,stimuli/m0_none_O-X-X.png,stimuli/m0_wW-L_O-X-X.png,1,20,48,13,,,,,,,,,450.2102565714158,456.88493389217183,457.6231455205707,457.6231455205707,457.6231455205707,458.51040106092114,458.51040106092114,right,0.22455325617920607,451.2654929996934,S4,T-M,2023-01-26_13h51.56.825,knowing_that_K_ONLY,2022.2.5,60.011936206507485,
Does Anna know that the book is here?,Does Anna think that the book is here?,Is the book here?,late,12,mem_3,mem_K,1,1,1,no,X-O-B,X-O-B,X-O-X,R,stimuli/blue-R.png,mB-M,m0,stimuli/m0_w0_X-O-B.png,stimuli/mW-R_w0_X-O-B.png,stimuli/mB-M_w0_X-O-B.png,stimuli/mB-M_w0_X-O-B.png,stimuli/mB-M_w0_X-O-X.png,stimuli/mW-L_w0_X-O-X.png,stimuli/m0_wW-R_X-O-X.png,stimuli/m0_none_X-O-X.png,stimuli/m0_none_X-O-X.png,stimuli/m0_wW-L_X-O-X.png,1,21,49,11,,,,,,,,,458.78270790725946,465.4459178193938,466.1831699272152,466.1831699272152,466.1831699272152,467.09376225061715,467.09376225061715,left,0.15347655932419002,459.85410444426816,S4,T-M,2023-01-26_13h51.56.825,knowing_that_K_ONLY,2022.2.5,60.011936206507485,
Does Anna know that the book is here?,Does Anna think that the book is here?,Is the book here?,early,9,per_9,per_K,1,1,1,switch,X-O-B,X-B-O,X-B-X,M,stimuli/blue-M.png,mB-R,m0,stimuli/m0_w0_X-O-B.png,stimuli/m0_wW-R_X-O-B.png,stimuli/m0_none_X-O-B.png,stimuli/mW-R_none_X-O-B.png,stimuli/mB-R_none_X-O-B.png,stimuli/mB-R_none_X-B-O.png,stimuli/mB-R_none_X-B-X.png,stimuli/mW-L_none_X-B-X.png,stimuli/m0_none_X-B-X.png,stimuli/m0_wW-L_X-B-X.png,1,22,50,8,,,,,,,,,467.276866092463,473.9544235786889,474.6876810529502,474.6876810529502,474.6876810529502,475.5768501806306,475.5768501806306,left,0.2784557872219011,468.34278717124835,S4,T-M,2023-01-26_13h51.56.825,knowing_that_K_ONLY,2022.2.5,60.011936206507485,
Does Anna know that the book is here?,Does Anna think that the book is here?,Is the book here?,late,11,mem_2,mem_K,1,1,1,no,O-B-O,O-B-X,O-X-X,M,stimuli/blue-M.png,mB-L,m0,stimuli/m0_w0_O-B-O.png,stimuli/mW-R_w0_O-B-O.png,stimuli/mB-L_w0_O-B-O.png,stimuli/mB-L_w0_O-B-X.png,stimuli/mB-L_w0_O-X-X.png,stimuli/mW-L_w0_O-X-X.png,stimuli/m0_wW-R_O-X-X.png,stimuli/m0_none_O-X-X.png,stimuli/m0_none_O-X-X.png,stimuli/m0_wW-L_O-X-X.png,1,23,51,10,,,,,,,,,475.87698376283515,482.5522783077322,483.28769478329923,483.28769478329923,483.28769478329923,484.1769370540278,484.1769370540278,left,0.3429893949069083,476.91735163365956,S4,T-M,2023-01-26_13h51.56.825,knowing_that_K_ONLY,2022.2.5,60.011936206507485,
Does Anna know that the book is here?,Does Anna think that the book is here?,Is the book here?,late,16,mem_7,mem_K,1,1,1,switch,B-X-O,O-X-B,O-X-X,R,stimuli/blue-R.png,mB-M,m0,stimuli/m0_w0_B-X-O.png,stimuli/mW-R_w0_B-X-O.png,stimuli/mB-M_w0_B-X-O.png,stimuli/mB-M_w0_O-X-B.png,stimuli/mB-M_w0_O-X-X.png,stimuli/mW-L_w0_O-X-X.png,stimuli/m0_wW-R_O-X-X.png,stimuli/m0_none_O-X-X.png,stimuli/m0_none_O-X-X.png,stimuli/m0_wW-L_O-X-X.png,1,24,52,15,,,,,,,,,484.5437844180269,491.21698700939305,491.95883621810935,491.95883621810935,491.95883621810935,492.84361323784105,492.84361323784105,left,1.035161042236723,485.59855247463565,S4,T-M,2023-01-26_13h51.56.825,knowing_that_K_ONLY,2022.2.5,60.011936206507485,
Does Anna know that the book is here?,Does Anna think that the book is here?,Is the book here?,early,7,per_7,per_K,1,1,1,switch,B-X-O,O-X-B,X-X-B,R,stimuli/blue-R.png,mB-R,m0,stimuli/m0_w0_B-X-O.png,stimuli/m0_wW-R_B-X-O.png,stimuli/m0_none_B-X-O.png,stimuli/mW-R_none_B-X-O.png,stimuli/mB-R_none_B-X-O.png,stimuli/mB-R_none_O-X-B.png,stimuli/mB-R_none_X-X-B.png,stimuli/mW-L_none_X-X-B.png,stimuli/m0_none_X-X-B.png,stimuli/m0_wW-L_X-X-B.png,1,25,53,6,,,,,,,,,493.9102872401709,500.5856706473278,501.32077594439033,501.32077594439033,501.32077594439033,502.21049685264006,502.21049685264006,left,0.3009828645735979,494.9649561686674,S4,T-M,2023-01-26_13h51.56.825,knowing_that_K_ONLY,2022.2.5,60.011936206507485,
Does Anna know that the book is here?,Does Anna think that the book is here?,Is the book here?,late,15,mem_6,mem_K,1,1,1,no,X-B-O,X-B-X,X-X-X,M,stimuli/blue-M.png,mB-R,m0,stimuli/m0_w0_X-B-O.png,stimuli/mW-R_w0_X-B-O.png,stimuli/mB-R_w0_X-B-O.png,stimuli/mB-R_w0_X-B-X.png,stimuli/mB-R_w0_X-X-X.png,stimuli/mW-L_w0_X-X-X.png,stimuli/m0_wW-R_X-X-X.png,stimuli/m0_none_X-X-X.png,stimuli/m0_none_X-X-X.png,stimuli/m0_wW-L_X-X-X.png,1,26,54,14,,,,,,,,,502.54360476869624,509.19406117440667,509.93368786294013,509.93368786294013,509.93368786294013,510.84383972443175,510.84383972443175,left,0.49163390789180994,503.6011115167057,S4,T-M,2023-01-26_13h51.56.825,knowing_that_K_ONLY,2022.2.5,60.011936206507485,
Does Anna know that the book is here?,Does Anna think that the book is here?,Is the book here?,early,20,no_2,no_K,0,0,0,no,X-O-X,O-O-X,X-O-X,L,stimuli/blue-L.png,mB-L,m0,stimuli/m0_w0_X-O-X.png,stimuli/m0_wW-R_X-O-X.png,stimuli/m0_none_X-O-X.png,stimuli/mW-R_none_X-O-X.png,stimuli/mB-L_none_X-O-X.png,stimuli/mB-L_none_O-O-X.png,stimuli/mB-L_none_X-O-X.png,stimuli/mW-L_none_X-O-X.png,stimuli/m0_none_X-O-X.png,stimuli/m0_wW-L_X-O-X.png,1,27,55,19,,,,,,,,,511.35964117583353,518.0324081173167,518.7718002990587,518.7718002990587,518.7718002990587,519.6436871507904,519.6436871507904,right,0.6354904423933476,512.4220055164769,S4,T-M,2023-01-26_13h51.56.825,knowing_that_K_ONLY,2022.2.5,60.011936206507485,
Does Anna know that the book is here?,Does Anna think that the book is here?,Is the book here?,late,12,mem_3,mem_K,1,1,1,no,X-O-B,X-O-B,X-O-X,R,stimuli/blue-R.png,mB-M,m0,stimuli/m0_w0_X-O-B.png,stimuli/mW-R_w0_X-O-B.png,stimuli/mB-M_w0_X-O-B.png,stimuli/mB-M_w0_X-O-B.png,stimuli/mB-M_w0_X-O-X.png,stimuli/mW-L_w0_X-O-X.png,stimuli/m0_wW-R_X-O-X.png,stimuli/m0_none_X-O-X.png,stimuli/m0_none_X-O-X.png,stimuli/m0_wW-L_X-O-X.png,2,0,56,11,,,,,,,,,520.3105147533352,526.9828053029487,527.7192204368766,527.7192204368766,527.7192204368766,528.6102268010145,528.6102268010145,left,0.33281482046004385,521.3727084270213,S4,T-M,2023-01-26_13h51.56.825,knowing_that_K_ONLY,2022.2.5,60.011936206507485,
Does Anna know that the book is here?,Does Anna think that the book is here?,Is the book here?,early,21,no_3,no_K,0,0,0,no,X-X-O,X-O-O,X-X-O,M,stimuli/blue-M.png,mB-M,m0,stimuli/m0_w0_X-X-O.png,stimuli/m0_wW-R_X-X-O.png,stimuli/m0_none_X-X-O.png,stimuli/mW-R_none_X-X-O.png,stimuli/mB-M_none_X-X-O.png,stimuli/mB-M_none_X-O-O.png,stimuli/mB-M_none_X-X-O.png,stimuli/mW-L_none_X-X-O.png,stimuli/m0_none_X-X-O.png,stimuli/m0_wW-L_X-X-O.png,2,1,57,20,,,,,,,,,528.9601393181365,535.6337791633559,536.3715788811678,536.3715788811678,536.3715788811678,537.2605690010823,537.2605690010823,right,0.33207857864908874,530.0148499510251,S4,T-M,2023-01-26_13h51.56.825,knowing_that_K_ONLY,2022.2.5,60.011936206507485,
Does Anna know that the book is here?,Does Anna think that the book is here?,Is the book here?,early,22,no_4,no_K,0,0,0,no,O-X-X,O-O-X,O-X-X,M,stimuli/blue-M.png,mB-M,m0,stimuli/m0_w0_O-X-X.png,stimuli/m0_wW-R_O-X-X.png,stimuli/m0_none_O-X-X.png,stimuli/mW-R_none_O-X-X.png,stimuli/mB-M_none_O-X-X.png,stimuli/mB-M_none_O-O-X.png,stimuli/mB-M_none_O-X-X.png,stimuli/mW-L_none_O-X-X.png,stimuli/m0_none_O-X-X.png,stimuli/m0_wW-L_O-X-X.png,2,2,58,21,,,,,,,,,537.6103413274977,544.2835333322873,545.0210921274265,545.0210921274265,545.0210921274265,545.9105599223403,545.9105599223403,right,0.30464129720348865,538.6659694557311,S4,T-M,2023-01-26_13h51.56.825,knowing_that_K_ONLY,2022.2.5,60.011936206507485,
Does Anna know that the book is here?,Does Anna think that the book is here?,Is the book here?,late,4,per_4,per_K,1,1,1,no,O-X-B,O-O-B,O-X-B,R,stimuli/blue-R.png,mB-M,m0,stimuli/m0_w0_O-X-B.png,stimuli/mW-R_w0_O-X-B.png,stimuli/mB-M_w0_O-X-B.png,stimuli/mB-M_w0_O-O-B.png,stimuli/mB-M_w0_O-X-B.png,stimuli/mW-L_w0_O-X-B.png,stimuli/m0_wW-R_O-X-B.png,stimuli/m0_none_O-X-B.png,stimuli/m0_none_O-X-B.png,stimuli/m0_wW-L_O-X-B.png,2,3,59,3,,,,,,,,,546.2437230164651,552.9167158028577,553.6595489130123,553.6595489130123,553.6595489130123,554.5435380417621,554.5435380417621,left,0.27992121351417154,547.3030118228635,S4,T-M,2023-01-26_13h51.56.825,knowing_that_K_ONLY,2022.2.5,60.011936206507485,
Does Anna know that the book is here?,Does Anna think that the book is here?,Is the book here?,late,5,per_5,per_K,1,1,1,no,X-B-O,O-B-O,X-B-O,M,stimuli/blue-M.png,mB-L,m0,stimuli/m0_w0_X-B-O.png,stimuli/mW-R_w0_X-B-O.png,stimuli/mB-L_w0_X-B-O.png,stimuli/mB-L_w0_O-B-O.png,stimuli/mB-L_w0_X-B-O.png,stimuli/mW-L_w0_X-B-O.png,stimuli/m0_wW-R_X-B-O.png,stimuli/m0_none_X-B-O.png,stimuli/m0_none_X-B-O.png,stimuli/m0_wW-L_X-B-O.png,2,4,60,4,,,,,,,,,554.8436979297549,561.5179476205958,562.2562019156758,562.2562019156758,562.2562019156758,563.1439194118138,563.1439194118138,left,0.8716428389307112,555.9054774472024,S4,T-M,2023-01-26_13h51.56.825,knowing_that_K_ONLY,2022.2.5,60.011936206507485,
Does Anna know that the book is here?,Does Anna think that the book is here?,Is the book here?,early,19,no_1,no_K,0,0,0,no,X-X-X,O-X-X,X-X-X,L,stimuli/blue-L.png,mB-L,m0,stimuli/m0_w0_X-X-X.png,stimuli/m0_wW-R_X-X-X.png,stimuli/m0_none_X-X-X.png,stimuli/mW-R_none_X-X-X.png,stimuli/mB-L_none_X-X-X.png,stimuli/mB-L_none_O-X-X.png,stimuli/mB-L_none_X-X-X.png,stimuli/mW-L_none_X-X-X.png,stimuli/m0_none_X-X-X.png,stimuli/m0_wW-L_X-X-X.png,2,5,61,18,,,,,,,,,564.0436464729719,570.7177662388422,571.4306909253355,571.4306909253355,571.4306909253355,572.3439497597283,572.3439497597283,right,0.35898011981043965,565.102530105738,S4,T-M,2023-01-26_13h51.56.825,knowing_that_K_ONLY,2022.2.5,60.011936206507485,
Does Anna know that the book is here?,Does Anna think that the book is here?,Is the book here?,late,17,mem_8,mem_K,1,1,1,switch,O-X-B,B-X-O,X-X-O,L,stimuli/blue-L.png,mB-M,m0,stimuli/m0_w0_O-X-B.png,stimuli/mW-R_w0_O-X-B.png,stimuli/mB-M_w0_O-X-B.png,stimuli/mB-M_w0_B-X-O.png,stimuli/mB-M_w0_X-X-O.png,stimuli/mW-L_w0_X-X-O.png,stimuli/m0_wW-R_X-X-O.png,stimuli/m0_none_X-X-O.png,stimuli/m0_none_X-X-O.png,stimuli/m0_wW-L_X-X-O.png,2,6,62,16,,,,,,,,,572.7271157089854,579.4026309660403,580.1406870051287,580.1406870051287,580.1406870051287,581.0271087796427,581.0271087796427,left,0.3404184830142185,573.7817589732585,S4,T-M,2023-01-26_13h51.56.825,knowing_that_K_ONLY,2022.2.5,60.011936206507485,
Does Anna know that the book is here?,Does Anna think that the book is here?,Is the book here?,late,14,mem_5,mem_K,1,1,1,no,O-B-X,O-B-X,O-X-X,M,stimuli/blue-M.png,mB-L,m0,stimuli/m0_w0_O-B-X.png,stimuli/mW-R_w0_O-B-X.png,stimuli/mB-L_w0_O-B-X.png,stimuli/mB-L_w0_O-B-X.png,stimuli/mB-L_w0_O-X-X.png,stimuli/mW-L_w0_O-X-X.png,stimuli/m0_wW-R_O-X-X.png,stimuli/m0_none_O-X-X.png,stimuli/m0_none_O-X-X.png,stimuli/m0_wW-L_O-X-X.png,2,7,63,13,,,,,,,,,581.3938688853523,588.069082908798,588.8068357894663,588.8068357894663,588.8068357894663,589.693811910809,589.693811910809,right,0.4586448170011863,582.4494784070412,S4,T-M,2023-01-26_13h51.56.825,knowing_that_K_ONLY,2022.2.5,60.011936206507485,
Does Anna know that the book is here?,Does Anna think that the book is here?,Is the book here?,early,26,no_8,no_K,0,0,0,hide,X-B-O,O-B-O,X-O-X,R,stimuli/blue-R.png,mB-L,m0,stimuli/m0_w0_X-B-O.png,stimuli/m0_wW-R_X-B-O.png,stimuli/m0_none_X-B-O.png,stimuli/mW-R_none_X-B-O.png,stimuli/mB-L_none_X-B-O.png,stimuli/mB-L_none_O-B-O.png,stimuli/mB-L_none_X-O-X.png,stimuli/mW-L_none_X-O-X.png,stimuli/m0_none_X-O-X.png,stimuli/m0_wW-L_X-O-X.png,2,8,64,25,,,,,,,,,590.1771394804819,596.8506423429353,597.5898657826474,597.5898657826474,597.5898657826474,598.4770443304442,598.4770443304442,right,0.7468002728419378,591.233147759689,S4,T-M,2023-01-26_13h51.56.825,knowing_that_K_ONLY,2022.2.5,60.011936206507485,
Does Anna know that the book is here?,Does Anna think that the book is here?,Is the book here?,late,13,mem_4,mem_K,1,1,1,no,B-X-O,B-X-O,X-X-O,L,stimuli/blue-L.png,mB-M,m0,stimuli/m0_w0_B-X-O.png,stimuli/mW-R_w0_B-X-O.png,stimuli/mB-M_w0_B-X-O.png,stimuli/mB-M_w0_B-X-O.png,stimuli/mB-M_w0_X-X-O.png,stimuli/mW-L_w0_X-X-O.png,stimuli/m0_wW-R_X-X-O.png,stimuli/m0_none_X-X-O.png,stimuli/m0_none_X-X-O.png,stimuli/m0_wW-L_X-X-O.png,2,9,65,12,,,,,,,,,599.2437271869276,605.9164960531052,606.6571608587401,606.6571608587401,606.6571608587401,607.5434482169803,607.5434482169803,right,0.3036817767424509,600.3053924987325,S4,T-M,2023-01-26_13h51.56.825,knowing_that_K_ONLY,2022.2.5,60.011936206507485,
Does Anna know that the book is here?,Does Anna think that the book is here?,Is the book here?,late,16,mem_7,mem_K,1,1,1,switch,B-X-O,O-X-B,O-X-X,R,stimuli/blue-R.png,mB-M,m0,stimuli/m0_w0_B-X-O.png,stimuli/mW-R_w0_B-X-O.png,stimuli/mB-M_w0_B-X-O.png,stimuli/mB-M_w0_O-X-B.png,stimuli/mB-M_w0_O-X-X.png,stimuli/mW-L_w0_O-X-X.png,stimuli/m0_wW-R_O-X-X.png,stimuli/m0_none_O-X-X.png,stimuli/m0_none_O-X-X.png,stimuli/m0_wW-L_O-X-X.png,2,10,66,15,,,,,,,,,607.8770190511132,614.5524496163707,615.2669099847553,615.2669099847553,615.2669099847553,616.1769418660551,616.1769418660551,left,0.34207157872151583,608.9343827213161,S4,T-M,2023-01-26_13h51.56.825,knowing_that_K_ONLY,2022.2.5,60.011936206507485,
Does Anna know that the book is here?,Does Anna think that the book is here?,Is the book here?,early,1,per_1,per_K,1,1,1,no,B-X-X,B-O-X,B-X-X,L,stimuli/blue-L.png,mB-M,m0,stimuli/m0_w0_B-X-X.png,stimuli/m0_wW-R_B-X-X.png,stimuli/m0_none_B-X-X.png,stimuli/mW-R_none_B-X-X.png,stimuli/mB-M_none_B-X-X.png,stimuli/mB-M_none_B-O-X.png,stimuli/mB-M_none_B-X-X.png,stimuli/mW-L_none_B-X-X.png,stimuli/m0_none_B-X-X.png,stimuli/m0_wW-L_B-X-X.png,2,11,67,0,,,,,,,,,616.5437500921544,623.2194587931735,623.9585349845001,623.9585349845001,623.9585349845001,624.8441156146582,624.8441156146582,left,0.3148886936251074,617.5971913093235,S4,T-M,2023-01-26_13h51.56.825,knowing_that_K_ONLY,2022.2.5,60.011936206507485,
Does Anna know that the book is here?,Does Anna think that the book is here?,Is the book here?,late,11,mem_2,mem_K,1,1,1,no,O-B-O,O-B-X,O-X-X,M,stimuli/blue-M.png,mB-L,m0,stimuli/m0_w0_O-B-O.png,stimuli/mW-R_w0_O-B-O.png,stimuli/mB-L_w0_O-B-O.png,stimuli/mB-L_w0_O-B-X.png,stimuli/mB-L_w0_O-X-X.png,stimuli/mW-L_w0_O-X-X.png,stimuli/m0_wW-R_O-X-X.png,stimuli/m0_none_O-X-X.png,stimuli/m0_none_O-X-X.png,stimuli/m0_wW-L_O-X-X.png,2,12,68,10,,,,,,,,,625.1773309996352,631.8490251771873,632.5884022812825,632.5884022812825,632.5884022812825,633.4773693033494,633.4773693033494,left,0.3632865735562518,626.2324445605045,S4,T-M,2023-01-26_13h51.56.825,knowing_that_K_ONLY,2022.2.5,60.011936206507485,
Does Anna know that the book is here?,Does Anna think that the book is here?,Is the book here?,early,20,no_2,no_K,0,0,0,no,X-O-X,O-O-X,X-O-X,L,stimuli/blue-L.png,mB-L,m0,stimuli/m0_w0_X-O-X.png,stimuli/m0_wW-R_X-O-X.png,stimuli/m0_none_X-O-X.png,stimuli/mW-R_none_X-O-X.png,stimuli/mB-L_none_X-O-X.png,stimuli/mB-L_none_O-O-X.png,stimuli/mB-L_none_X-O-X.png,stimuli/mW-L_none_X-O-X.png,stimuli/m0_none_X-O-X.png,stimuli/m0_wW-L_X-O-X.png,2,13,69,19,,,,,,,,,633.8606850674842,640.5350630794419,641.2726898846449,641.2726898846449,641.2726898846449,642.1604599923594,642.1604599923594,left,1.3832417767262086,634.9191000076244,S4,T-M,2023-01-26_13h51.56.825,knowing_that_K_ONLY,2022.2.5,60.011936206507485,
Does Anna know that the book is here?,Does Anna think that the book is here?,Is the book here?,late,6,per_6,per_K,1,1,1,no,X-B-X,O-B-X,X-B-X,M,stimuli/blue-M.png,mB-L,m0,stimuli/m0_w0_X-B-X.png,stimuli/mW-R_w0_X-B-X.png,stimuli/mB-L_w0_X-B-X.png,stimuli/mB-L_w0_O-B-X.png,stimuli/mB-L_w0_X-B-X.png,stimuli/mW-L_w0_X-B-X.png,stimuli/m0_wW-R_X-B-X.png,stimuli/m0_none_X-B-X.png,stimuli/m0_none_X-B-X.png,stimuli/m0_wW-L_X-B-X.png,2,14,70,5,,,,,,,,,643.5605986432638,650.2327143554576,650.9527566885808,650.9527566885808,650.9527566885808,651.8605336486362,651.8605336486362,left,0.7544690582435578,644.6208299675491,S4,T-M,2023-01-26_13h51.56.825,knowing_that_K_ONLY,2022.2.5,60.011936206507485,
Does Anna know that the book is here?,Does Anna think that the book is here?,Is the book here?,late,18,mem_9,mem_K,1,1,1,switch,X-O-B,X-B-O,X-X-O,M,stimuli/blue-M.png,mB-L,m0,stimuli/m0_w0_X-O-B.png,stimuli/mW-R_w0_X-O-B.png,stimuli/mB-L_w0_X-O-B.png,stimuli/mB-L_w0_X-B-O.png,stimuli/mB-L_w0_X-X-O.png,stimuli/mW-L_w0_X-X-O.png,stimuli/m0_wW-R_X-X-O.png,stimuli/m0_none_X-X-O.png,stimuli/m0_none_X-X-O.png,stimuli/m0_wW-L_X-X-O.png,2,15,71,17,,,,,,,,,652.6440082740737,659.3176593474345,660.0553904135013,660.0553904135013,660.0553904135013,660.9440648637246,660.9440648637246,left,0.2877240943489596,653.7098356784554,S4,T-M,2023-01-26_13h51.56.825,knowing_that_K_ONLY,2022.2.5,60.011936206507485,
Does Anna know that the book is here?,Does Anna think that the book is here?,Is the book here?,early,27,no_9,no_K,0,0,0,hide,X-X-B,O-O-B,X-X-O,L,stimuli/blue-L.png,mB-M,m0,stimuli/m0_w0_X-X-B.png,stimuli/m0_wW-R_X-X-B.png,stimuli/m0_none_X-X-B.png,stimuli/mW-R_none_X-X-B.png,stimuli/mB-M_none_X-X-B.png,stimuli/mB-M_none_O-O-B.png,stimuli/mB-M_none_X-X-O.png,stimuli/mW-L_none_X-X-O.png,stimuli/m0_none_X-X-O.png,stimuli/m0_wW-L_X-X-O.png,2,16,72,26,,,,,,,,,661.2608124902472,667.9342178287916,668.6745602277806,668.6745602277806,668.6745602277806,669.5605890192091,669.5605890192091,right,0.27871114609297365,662.3156286671292,S4,T-M,2023-01-26_13h51.56.825,knowing_that_K_ONLY,2022.2.5,60.011936206507485,
Does Anna know that the book is here?,Does Anna think that the book is here?,Is the book here?,early,2,per_2,per_K,1,1,1,no,X-X-B,O-X-B,X-X-B,R,stimuli/blue-R.png,mB-L,m0,stimuli/m0_w0_X-X-B.png,stimuli/m0_wW-R_X-X-B.png,stimuli/m0_none_X-X-B.png,stimuli/mW-R_none_X-X-B.png,stimuli/mB-L_none_X-X-B.png,stimuli/mB-L_none_O-X-B.png,stimuli/mB-L_none_X-X-B.png,stimuli/mW-L_none_X-X-B.png,stimuli/m0_none_X-X-B.png,stimuli/m0_wW-L_X-X-B.png,2,17,73,1,,,,,,,,,669.8606080748141,676.5125100170262,677.2548215022543,677.2548215022543,677.2548215022543,678.1605507795466,678.1605507795466,left,0.3115055097732693,670.9140111163724,S4,T-M,2023-01-26_13h51.56.825,knowing_that_K_ONLY,2022.2.5,60.011936206507485,
Does Anna know that the book is here?,Does Anna think that the book is here?,Is the book here?,early,8,per_8,per_K,1,1,1,switch,O-X-B,B-X-O,B-X-X,L,stimuli/blue-L.png,mB-L,m0,stimuli/m0_w0_O-X-B.png,stimuli/m0_wW-R_O-X-B.png,stimuli/m0_none_O-X-B.png,stimuli/mW-R_none_O-X-B.png,stimuli/mB-L_none_O-X-B.png,stimuli/mB-L_none_B-X-O.png,stimuli/mB-L_none_B-X-X.png,stimuli/mW-L_none_B-X-X.png,stimuli/m0_none_B-X-X.png,stimuli/m0_wW-L_B-X-X.png,2,18,74,7,,,,,,,,,678.493986876565,685.1679346922319,685.9072190844454,685.9072190844454,685.9072190844454,686.7939263732405,686.7939263732405,left,0.5259280235040933,679.5523960422724,S4,T-M,2023-01-26_13h51.56.825,knowing_that_K_ONLY,2022.2.5,60.011936206507485,
Does Anna know that the book is here?,Does Anna think that the book is here?,Is the book here?,early,28,no_10,no_K,0,0,0,hide,O-B-O,O-B-O,X-O-X,L,stimuli/blue-L.png,mB-M,m0,stimuli/m0_w0_O-B-O.png,stimuli/m0_wW-R_O-B-O.png,stimuli/m0_none_O-B-O.png,stimuli/mW-R_none_O-B-O.png,stimuli/mB-M_none_O-B-O.png,stimuli/mB-M_none_O-B-O.png,stimuli/mB-M_none_X-O-X.png,stimuli/mW-L_none_X-O-X.png,stimuli/m0_none_X-O-X.png,stimuli/m0_wW-L_X-O-X.png,2,19,75,27,,,,,,,,,687.344063323806,693.9954789293697,694.7351636830717,694.7351636830717,694.7351636830717,695.6439729857957,695.6439729857957,right,0.24344596115406603,688.4066823816393,S4,T-M,2023-01-26_13h51.56.825,knowing_that_K_ONLY,2022.2.5,60.011936206507485,
Does Anna know that the book is here?,Does Anna think that the book is here?,Is the book here?,early,9,per_9,per_K,1,1,1,switch,X-O-B,X-B-O,X-B-X,M,stimuli/blue-M.png,mB-R,m0,stimuli/m0_w0_X-O-B.png,stimuli/m0_wW-R_X-O-B.png,stimuli/m0_none_X-O-B.png,stimuli/mW-R_none_X-O-B.png,stimuli/mB-R_none_X-O-B.png,stimuli/mB-R_none_X-B-O.png,stimuli/mB-R_none_X-B-X.png,stimuli/mW-L_none_X-B-X.png,stimuli/m0_none_X-B-X.png,stimuli/m0_wW-L_X-B-X.png,2,20,76,8,,,,,,,,,695.9105836617528,702.5835466135759,703.3226356368978,703.3226356368978,703.3226356368978,704.2105863564648,704.2105863564648,left,0.2692041619447991,696.9672274509212,S4,T-M,2023-01-26_13h51.56.825,knowing_that_K_ONLY,2022.2.5,60.011936206507485,
Does Anna know that the book is here?,Does Anna think that the book is here?,Is the book here?,early,3,per_3,per_K,1,1,1,no,O-B-X,O-B-O,O-B-X,M,stimuli/blue-M.png,mB-R,m0,stimuli/m0_w0_O-B-X.png,stimuli/m0_wW-R_O-B-X.png,stimuli/m0_none_O-B-X.png,stimuli/mW-R_none_O-B-X.png,stimuli/mB-R_none_O-B-X.png,stimuli/mB-R_none_O-B-O.png,stimuli/mB-R_none_O-B-X.png,stimuli/mW-L_none_O-B-X.png,stimuli/m0_none_O-B-X.png,stimuli/m0_wW-L_O-B-X.png,2,21,77,2,,,,,,,,,704.5108270867495,711.1850793440826,711.9241863323841,711.9241863323841,711.9241863323841,712.8105028836289,712.8105028836289,left,0.3485675099072978,705.5654956945218,S4,T-M,2023-01-26_13h51.56.825,knowing_that_K_ONLY,2022.2.5,60.011936206507485,
Does Anna know that the book is here?,Does Anna think that the book is here?,Is the book here?,late,15,mem_6,mem_K,1,1,1,no,X-B-O,X-B-X,X-X-X,M,stimuli/blue-M.png,mB-R,m0,stimuli/m0_w0_X-B-O.png,stimuli/mW-R_w0_X-B-O.png,stimuli/mB-R_w0_X-B-O.png,stimuli/mB-R_w0_X-B-X.png,stimuli/mB-R_w0_X-X-X.png,stimuli/mW-L_w0_X-X-X.png,stimuli/m0_wW-R_X-X-X.png,stimuli/m0_none_X-X-X.png,stimuli/m0_none_X-X-X.png,stimuli/m0_wW-L_X-X-X.png,2,22,78,14,,,,,,,,,713.1773338868516,719.8490822800668,720.5895918172318,720.5895918172318,720.5895918172318,721.4772223758046,721.4772223758046,right,0.7460624269442633,714.2311587837758,S4,T-M,2023-01-26_13h51.56.825,knowing_that_K_ONLY,2022.2.5,60.011936206507485,
Does Anna know that the book is here?,Does Anna think that the book is here?,Is the book here?,early,7,per_7,per_K,1,1,1,switch,B-X-O,O-X-B,X-X-B,R,stimuli/blue-R.png,mB-R,m0,stimuli/m0_w0_B-X-O.png,stimuli/m0_wW-R_B-X-O.png,stimuli/m0_none_B-X-O.png,stimuli/mW-R_none_B-X-O.png,stimuli/mB-R_none_B-X-O.png,stimuli/mB-R_none_O-X-B.png,stimuli/mB-R_none_X-X-B.png,stimuli/mW-L_none_X-X-B.png,stimuli/m0_none_X-X-B.png,stimuli/m0_wW-L_X-X-B.png,2,23,79,6,,,,,,,,,722.2440717288991,728.9164026995422,729.6583167103818,729.6583167103818,729.6583167103818,730.5439659922849,730.5439659922849,left,0.2715787426568568,723.3008768816944,S4,T-M,2023-01-26_13h51.56.825,knowing_that_K_ONLY,2022.2.5,60.011936206507485,
Does Anna know that the book is here?,Does Anna think that the book is here?,Is the book here?,early,23,no_5,no_K,0,0,0,no,X-O-X,X-O-O,X-O-X,R,stimuli/blue-R.png,mB-R,m0,stimuli/m0_w0_X-O-X.png,stimuli/m0_wW-R_X-O-X.png,stimuli/m0_none_X-O-X.png,stimuli/mW-R_none_X-O-X.png,stimuli/mB-R_none_X-O-X.png,stimuli/mB-R_none_X-O-O.png,stimuli/mB-R_none_X-O-X.png,stimuli/mW-L_none_X-O-X.png,stimuli/m0_none_X-O-X.png,stimuli/m0_wW-L_X-O-X.png,2,24,80,22,,,,,,,,,730.8440261107171,737.5165935129626,738.2564277607016,738.2564277607016,738.2564277607016,739.1442524049198,739.1442524049198,right,0.28690444375388324,731.9084548158571,S4,T-M,2023-01-26_13h51.56.825,knowing_that_K_ONLY,2022.2.5,60.011936206507485,
Does Anna know that the book is here?,Does Anna think that the book is here?,Is the book here?,early,24,no_6,no_K,0,0,0,no,X-X-X,X-X-O,X-X-X,R,stimuli/blue-R.png,mB-R,m0,stimuli/m0_w0_X-X-X.png,stimuli/m0_wW-R_X-X-X.png,stimuli/m0_none_X-X-X.png,stimuli/mW-R_none_X-X-X.png,stimuli/mB-R_none_X-X-X.png,stimuli/mB-R_none_X-X-O.png,stimuli/mB-R_none_X-X-X.png,stimuli/mW-L_none_X-X-X.png,stimuli/m0_none_X-X-X.png,stimuli/m0_wW-L_X-X-X.png,2,25,81,23,,,,,,,,,739.4606907777488,746.1332228917163,746.8748408016982,746.8748408016982,746.8748408016982,747.7607512169052,747.7607512169052,right,0.1674728546058759,740.5227821153821,S4,T-M,2023-01-26_13h51.56.825,knowing_that_K_ONLY,2022.2.5,60.011936206507485,
Does Anna know that the book is here?,Does Anna think that the book is here?,Is the book here?,early,25,no_7,no_K,0,0,0,hide,B-X-X,B-O-O,O-X-X,M,stimuli/blue-M.png,mB-L,m0,stimuli/m0_w0_B-X-X.png,stimuli/m0_wW-R_B-X-X.png,stimuli/m0_none_B-X-X.png,stimuli/mW-R_none_B-X-X.png,stimuli/mB-L_none_B-X-X.png,stimuli/mB-L_none_B-O-O.png,stimuli/mB-L_none_O-X-X.png,stimuli/mW-L_none_O-X-X.png,stimuli/m0_none_O-X-X.png,stimuli/m0_wW-L_O-X-X.png,2,26,82,24,,,,,,,,,747.9608758807881,754.6335109723732,755.3722211278509,755.3722211278509,755.3722211278509,756.2602382536279,756.2602382536279,right,0.323818874778226,749.0130345292855,S4,T-M,2023-01-26_13h51.56.825,knowing_that_K_ONLY,2022.2.5,60.011936206507485,
Does Anna know that the book is here?,Does Anna think that the book is here?,Is the book here?,late,10,mem_1,mem_K,1,1,1,no,O-X-B,X-X-B,X-X-X,R,stimuli/blue-R.png,mB-M,m0,stimuli/m0_w0_O-X-B.png,stimuli/mW-R_w0_O-X-B.png,stimuli/mB-M_w0_O-X-B.png,stimuli/mB-M_w0_X-X-B.png,stimuli/mB-M_w0_X-X-X.png,stimuli/mW-L_w0_X-X-X.png,stimuli/m0_wW-R_X-X-X.png,stimuli/m0_none_X-X-X.png,stimuli/m0_none_X-X-X.png,stimuli/m0_wW-L_X-X-X.png,2,27,83,9,,,,,,,,,756.6107285361504,763.2618284720229,764.0209410294192,764.0209410294192,764.0209410294192,764.9110430510482,764.9110430510482,left,0.30484629003331065,757.6669665101217,S4,T-M,2023-01-26_13h51.56.825,knowing_that_K_ONLY,2022.2.5,60.011936206507485,
