K_text,B_text,T_text,Anna_exit,trial_num,trial_code,cond,K_hit,B_hit,T_hit,book_move,start_shelf,mid_shelf,mid_shelf_2,end_shelf,rectangle,rectangle_B,rectangle_T,rectangle_path,rectangle_path_B,rectangle_path_T,Todd_mid,Todd_final,frame_1,frame_2,frame_3,frame_4,frame_5,frame_6,frame_7,frame_8,frame_9,frame_10,trials.thisRepN,trials.thisTrialN,trials.thisN,trials.thisIndex,frames.thisRepN,frames.thisTrialN,frames.thisN,frames.thisIndex,sessionInst.started,startSession.started,startSession.keys,startSession.rt,crossText.started,movingImage.started,staticImage.started,promptText3.started,rectImage.started,respText.started,keyResp.started,keyResp.keys,keyResp.rt,crossText.stopped,subject,session,date,expName,psychopyVersion,frameRate,
,,,,,,,,,,,,,,,,,,,,,,,,,,,,,,,,,,,,,,,,,12.186069020070136,12.186069020070136,left,7.8406153686810285,,,,,,,,,,,S4,T-A,2023-01-26_13h03.44.396,knowing_that_K_ONLY,2022.2.5,60.01205175531569,
Does Anna know that the book is here?,Does Anna think that the book is here?,Is the book here?,late,50,mem_10,mem_K,1,1,1,show,O-O-X,O-O-B,O-B-X,O-X-X,M,M,M,stimuli/blue-M.png,stimuli/blue-M.png,stimuli/blue-M.png,mB-L,m0,stimuli/m0_w0_O-O-X.png,stimuli/mW-R_w0_O-O-X.png,stimuli/mB-L_w0_O-O-B.png,stimuli/mB-L_w0_O-B-X.png,stimuli/mB-L_w0_O-X-X.png,stimuli/mW-L_w0_O-X-X.png,stimuli/m0_wW-R_O-X-X.png,stimuli/m0_none_O-X-X.png,stimuli/m0_none_O-X-X.png,stimuli/m0_wW-L_O-X-X.png,0,0,0,21,,,,,,,,,20.094039103249088,26.733776532812044,27.482589723658748,27.482589723658748,27.482589723658748,28.35782254615333,28.35782254615333,left,0.8936222190968692,,S4,T-A,2023-01-26_13h03.44.396,knowing_that_K_ONLY,2022.2.5,60.01205175531569,
Does Anna know that the book is here?,Does Anna think that the book is here?,Is the book here?,early,42,mem_2,mem_K,0,1,0,switch,O-O-X,O-O-B,B-O-X,X-O-X,L,R,R,stimuli/blue-L.png,stimuli/blue-R.png,stimuli/blue-R.png,mB-M,m0,stimuli/m0_w0_O-O-X.png,stimuli/m0_wW-R_O-O-X.png,stimuli/m0_none_O-O-X.png,stimuli/mW-R_none_O-O-X.png,stimuli/mB-M_none_O-O-B.png,stimuli/mB-M_none_B-O-X.png,stimuli/mB-M_none_X-O-X.png,stimuli/mW-L_none_X-O-X.png,stimuli/m0_none_X-O-X.png,stimuli/m0_wW-L_X-O-X.png,0,1,1,13,,,,,,,,,29.27419188222848,35.94825262052473,36.686105591477826,36.686105591477826,36.686105591477826,37.574273494421504,37.574273494421504,right,0.4999666673829779,30.328556048334576,S4,T-A,2023-01-26_13h03.44.396,knowing_that_K_ONLY,2022.2.5,60.01205175531569,
Does Anna know that the book is here?,Does Anna think that the book is here?,Is the book here?,early,31,per_3,per_K,1,0,1,no,O-B-X,O-B-O,none,O-B-X,M,R,M,stimuli/blue-M.png,stimuli/blue-R.png,stimuli/blue-M.png,mB-R,m0,stimuli/m0_w0_O-B-X.png,stimuli/m0_wW-R_O-B-X.png,stimuli/m0_none_O-B-X.png,stimuli/mW-R_none_O-B-X.png,stimuli/mB-R_none_O-B-X.png,stimuli/mB-R_none_O-B-O.png,stimuli/mB-R_none_O-B-X.png,stimuli/mW-L_none_O-B-X.png,stimuli/m0_none_O-B-X.png,stimuli/m0_wW-L_O-B-X.png,0,2,2,2,,,,,,,,,38.09123015590012,44.765528929652646,45.50802134745754,45.50802134745754,45.50802134745754,46.39091301057488,46.39091301057488,left,0.3791662135627121,39.14790538372472,S4,T-A,2023-01-26_13h03.44.396,knowing_that_K_ONLY,2022.2.5,60.01205175531569,
Does Anna know that the book is here?,Does Anna think that the book is here?,Is the book here?,early,35,per_7,per_K,1,0,1,switch,B-X-O,O-X-B,none,X-X-B,R,L,R,stimuli/blue-R.png,stimuli/blue-L.png,stimuli/blue-R.png,mB-R,m0,stimuli/m0_w0_B-X-O.png,stimuli/m0_wW-R_B-X-O.png,stimuli/m0_none_B-X-O.png,stimuli/mW-R_none_B-X-O.png,stimuli/mB-R_none_B-X-O.png,stimuli/mB-R_none_O-X-B.png,stimuli/mB-R_none_X-X-B.png,stimuli/mW-L_none_X-X-B.png,stimuli/m0_none_X-X-B.png,stimuli/m0_wW-L_X-X-B.png,0,3,3,6,,,,,,,,,46.79107187199406,53.464098021853715,54.204053853754885,54.204053853754885,54.204053853754885,55.09113166958559,55.09113166958559,left,0.42311392026022077,47.8342015320668,S4,T-A,2023-01-26_13h03.44.396,knowing_that_K_ONLY,2022.2.5,60.01205175531569,
Does Anna know that the book is here?,Does Anna think that the book is here?,Is the book here?,late,38,per_10,per_K,1,1,1,show,X-X-X,X-O-X,none,X-O-B,R,R,R,stimuli/blue-R.png,stimuli/blue-R.png,stimuli/blue-R.png,mB-R,m0,stimuli/m0_w0_X-X-X.png,stimuli/mW-R_w0_X-X-X.png,stimuli/mB-R_w0_X-X-X.png,stimuli/mB-R_w0_X-O-X.png,stimuli/mB-R_w0_X-O-B.png,stimuli/mW-L_w0_X-O-B.png,stimuli/m0_wW-R_X-O-B.png,stimuli/m0_none_X-O-B.png,stimuli/m0_none_X-O-B.png,stimuli/m0_wW-L_X-O-B.png,0,4,4,9,,,,,,,,,55.54122826317325,62.21797123167198,62.95520794100594,62.95520794100594,62.95520794100594,63.841107448912226,63.841107448912226,left,0.2979669125052169,56.6009167896118,S4,T-A,2023-01-26_13h03.44.396,knowing_that_K_ONLY,2022.2.5,60.01205175531569,
Does Anna know that the book is here?,Does Anna think that the book is here?,Is the book here?,early,43,mem_3,mem_K,0,1,0,switch,O-O-X,O-O-B,B-O-X,X-O-X,L,R,R,stimuli/blue-L.png,stimuli/blue-R.png,stimuli/blue-R.png,mB-M,m0,stimuli/m0_w0_O-O-X.png,stimuli/m0_wW-R_O-O-X.png,stimuli/m0_none_O-O-X.png,stimuli/mW-R_none_O-O-X.png,stimuli/mB-M_none_O-O-B.png,stimuli/mB-M_none_B-O-X.png,stimuli/mB-M_none_X-O-X.png,stimuli/mW-L_none_X-O-X.png,stimuli/m0_none_X-O-X.png,stimuli/m0_wW-L_X-O-X.png,0,5,5,14,,,,,,,,,64.15781818318646,70.83125848928466,71.55003557703458,71.55003557703458,71.55003557703458,72.45775543421041,72.45775543421041,right,0.28161207656376064,65.22158411028795,S4,T-A,2023-01-26_13h03.44.396,knowing_that_K_ONLY,2022.2.5,60.01205175531569,
Does Anna know that the book is here?,Does Anna think that the book is here?,Is the book here?,early,37,per_9,per_K,1,0,1,switch,X-O-B,X-B-O,none,X-B-X,M,R,M,stimuli/blue-M.png,stimuli/blue-R.png,stimuli/blue-M.png,mB-R,m0,stimuli/m0_w0_X-O-B.png,stimuli/m0_wW-R_X-O-B.png,stimuli/m0_none_X-O-B.png,stimuli/mW-R_none_X-O-B.png,stimuli/mB-R_none_X-O-B.png,stimuli/mB-R_none_X-B-O.png,stimuli/mB-R_none_X-B-X.png,stimuli/mW-L_none_X-B-X.png,stimuli/m0_none_X-B-X.png,stimuli/m0_wW-L_X-B-X.png,0,6,6,8,,,,,,,,,72.75770102615934,79.43184934335295,80.17081838659942,80.17081838659942,80.17081838659942,81.05763635237236,81.05763635237236,left,0.30452860821969807,73.813105554902,S4,T-A,2023-01-26_13h03.44.396,knowing_that_K_ONLY,2022.2.5,60.01205175531569,
Does Anna know that the book is here?,Does Anna think that the book is here?,Is the book here?,early,46,mem_6,mem_K,0,1,0,switch,O-X-O,O-B-O,O-X-B,O-X-X,R,M,M,stimuli/blue-R.png,stimuli/blue-M.png,stimuli/blue-M.png,mB-L,m0,stimuli/m0_w0_O-X-O.png,stimuli/m0_wW-R_O-X-O.png,stimuli/m0_none_O-X-O.png,stimuli/mW-R_none_O-X-O.png,stimuli/mB-L_none_O-B-O.png,stimuli/mB-L_none_O-X-B.png,stimuli/mB-L_none_O-X-X.png,stimuli/mW-L_none_O-X-X.png,stimuli/m0_none_O-X-X.png,stimuli/m0_wW-L_O-X-X.png,0,7,7,17,,,,,,,,,81.3911048504524,88.0658405572176,88.77509943279438,88.77509943279438,88.77509943279438,89.69054100790527,89.69054100790527,right,0.3035950728226453,82.44514789315872,S4,T-A,2023-01-26_13h03.44.396,knowing_that_K_ONLY,2022.2.5,60.01205175531569,
Does Anna know that the book is here?,Does Anna think that the book is here?,Is the book here?,early,47,mem_7,mem_K,0,1,0,switch,X-O-O,B-O-O,X-O-B,X-O-X,R,L,L,stimuli/blue-R.png,stimuli/blue-L.png,stimuli/blue-L.png,mB-M,m0,stimuli/m0_w0_X-O-O.png,stimuli/m0_wW-R_X-O-O.png,stimuli/m0_none_X-O-O.png,stimuli/mW-R_none_X-O-O.png,stimuli/mB-M_none_B-O-O.png,stimuli/mB-M_none_X-O-B.png,stimuli/mB-M_none_X-O-X.png,stimuli/mW-L_none_X-O-X.png,stimuli/m0_none_X-O-X.png,stimuli/m0_wW-L_X-O-X.png,0,8,8,18,,,,,,,,,90.02443168219179,96.6954881043639,97.41007198172156,97.41007198172156,97.41007198172156,98.32446357002482,98.32446357002482,right,0.2787848435109481,91.082232606248,S4,T-A,2023-01-26_13h03.44.396,knowing_that_K_ONLY,2022.2.5,60.01205175531569,
Does Anna know that the book is here?,Does Anna think that the book is here?,Is the book here?,early,29,per_1,per_K,1,0,1,no,B-X-X,B-O-X,none,B-X-X,L,M,L,stimuli/blue-L.png,stimuli/blue-M.png,stimuli/blue-L.png,mB-M,m0,stimuli/m0_w0_B-X-X.png,stimuli/m0_wW-R_B-X-X.png,stimuli/m0_none_B-X-X.png,stimuli/mW-R_none_B-X-X.png,stimuli/mB-M_none_B-X-X.png,stimuli/mB-M_none_B-O-X.png,stimuli/mB-M_none_B-X-X.png,stimuli/mW-L_none_B-X-X.png,stimuli/m0_none_B-X-X.png,stimuli/m0_wW-L_B-X-X.png,0,9,9,0,,,,,,,,,98.6243401892716,105.30207700410392,106.03637548268307,106.03637548268307,106.03637548268307,106.92435828258749,106.92435828258749,left,0.3022367947269231,99.68749627063517,S4,T-A,2023-01-26_13h03.44.396,knowing_that_K_ONLY,2022.2.5,60.01205175531569,
Does Anna know that the book is here?,Does Anna think that the book is here?,Is the book here?,late,52,mem_12,mem_K,1,1,1,show,X-O-O,B-O-O,X-O-B,X-O-X,R,R,R,stimuli/blue-R.png,stimuli/blue-R.png,stimuli/blue-R.png,mB-M,m0,stimuli/m0_w0_X-O-O.png,stimuli/mW-R_w0_X-O-O.png,stimuli/mB-M_w0_B-O-O.png,stimuli/mB-M_w0_X-O-B.png,stimuli/mB-M_w0_X-O-X.png,stimuli/mW-L_w0_X-O-X.png,stimuli/m0_wW-R_X-O-X.png,stimuli/m0_none_X-O-X.png,stimuli/m0_none_X-O-X.png,stimuli/m0_wW-L_X-O-X.png,0,10,10,23,,,,,,,,,107.25786623940803,113.93386815395206,114.66879508481361,114.66879508481361,114.66879508481361,115.55771591130178,115.55771591130178,left,0.2693269421579316,108.32206428749487,S4,T-A,2023-01-26_13h03.44.396,knowing_that_K_ONLY,2022.2.5,60.01205175531569,
Does Anna know that the book is here?,Does Anna think that the book is here?,Is the book here?,early,48,mem_8,mem_K,0,1,0,switch,X-O-O,B-O-O,X-B-O,X-X-O,M,L,L,stimuli/blue-M.png,stimuli/blue-L.png,stimuli/blue-L.png,mB-R,m0,stimuli/m0_w0_X-O-O.png,stimuli/m0_wW-R_X-O-O.png,stimuli/m0_none_X-O-O.png,stimuli/mW-R_none_X-O-O.png,stimuli/mB-R_none_B-O-O.png,stimuli/mB-R_none_X-B-O.png,stimuli/mB-R_none_X-X-O.png,stimuli/mW-L_none_X-X-O.png,stimuli/m0_none_X-X-O.png,stimuli/m0_wW-L_X-X-O.png,0,11,11,19,,,,,,,,,115.8576919795014,122.52887062740047,123.26715796510689,123.26715796510689,123.26715796510689,124.15787785244174,124.15787785244174,right,0.3098821616731584,116.91364732629154,S4,T-A,2023-01-26_13h03.44.396,knowing_that_K_ONLY,2022.2.5,60.01205175531569,
Does Anna know that the book is here?,Does Anna think that the book is here?,Is the book here?,late,40,per_12,per_K,1,1,1,show,O-X-X,O-B-X,none,O-B-X,M,M,M,stimuli/blue-M.png,stimuli/blue-M.png,stimuli/blue-M.png,mB-M,m0,stimuli/m0_w0_O-X-X.png,stimuli/mW-R_w0_O-X-X.png,stimuli/mB-M_w0_O-X-X.png,stimuli/mB-M_w0_O-B-X.png,stimuli/mB-M_w0_O-B-X.png,stimuli/mW-L_w0_O-B-X.png,stimuli/m0_wW-R_O-B-X.png,stimuli/m0_none_O-B-X.png,stimuli/m0_none_O-B-X.png,stimuli/m0_wW-L_O-B-X.png,0,12,12,11,,,,,,,,,124.49106661078986,131.16506864211988,131.9042330540251,131.9042330540251,131.9042330540251,132.79105134063866,132.79105134063866,left,0.2993146040244028,125.54481355275493,S4,T-A,2023-01-26_13h03.44.396,knowing_that_K_ONLY,2022.2.5,60.01205175531569,
Does Anna know that the book is here?,Does Anna think that the book is here?,Is the book here?,early,41,mem_1,mem_K,0,1,0,switch,O-O-X,O-O-B,O-B-X,O-X-X,M,R,R,stimuli/blue-M.png,stimuli/blue-R.png,stimuli/blue-R.png,mB-L,m0,stimuli/m0_w0_O-O-X.png,stimuli/m0_wW-R_O-O-X.png,stimuli/m0_none_O-O-X.png,stimuli/mW-R_none_O-O-X.png,stimuli/mB-L_none_O-O-B.png,stimuli/mB-L_none_O-B-X.png,stimuli/mB-L_none_O-X-X.png,stimuli/mW-L_none_O-X-X.png,stimuli/m0_none_O-X-X.png,stimuli/m0_wW-L_O-X-X.png,0,13,13,12,,,,,,,,,133.10769598954357,139.7837883704342,140.52326748962514,140.52326748962514,140.52326748962514,141.40794698544778,141.40794698544778,right,0.31489598494954407,134.16498074226547,S4,T-A,2023-01-26_13h03.44.396,knowing_that_K_ONLY,2022.2.5,60.01205175531569,
Does Anna know that the book is here?,Does Anna think that the book is here?,Is the book here?,early,36,per_8,per_K,1,0,1,switch,O-X-B,B-X-O,none,B-X-X,L,M,L,stimuli/blue-L.png,stimuli/blue-M.png,stimuli/blue-L.png,mB-L,m0,stimuli/m0_w0_O-X-B.png,stimuli/m0_wW-R_O-X-B.png,stimuli/m0_none_O-X-B.png,stimuli/mW-R_none_O-X-B.png,stimuli/mB-L_none_O-X-B.png,stimuli/mB-L_none_B-X-O.png,stimuli/mB-L_none_B-X-X.png,stimuli/mW-L_none_B-X-X.png,stimuli/m0_none_B-X-X.png,stimuli/m0_wW-L_B-X-X.png,0,14,14,7,,,,,,,,,141.74112644046545,148.4179601961514,149.1541437106207,149.1541437106207,149.1541437106207,150.0412536066724,150.0412536066724,left,0.29876025731209666,142.80533507512882,S4,T-A,2023-01-26_13h03.44.396,knowing_that_K_ONLY,2022.2.5,60.01205175531569,
Does Anna know that the book is here?,Does Anna think that the book is here?,Is the book here?,early,44,mem_4,mem_K,0,1,0,switch,O-X-O,O-B-O,O-X-B,O-X-X,R,M,M,stimuli/blue-R.png,stimuli/blue-M.png,stimuli/blue-M.png,mB-L,m0,stimuli/m0_w0_O-X-O.png,stimuli/m0_wW-R_O-X-O.png,stimuli/m0_none_O-X-O.png,stimuli/mW-R_none_O-X-O.png,stimuli/mB-L_none_O-B-O.png,stimuli/mB-L_none_O-X-B.png,stimuli/mB-L_none_O-X-X.png,stimuli/mW-L_none_O-X-X.png,stimuli/m0_none_O-X-X.png,stimuli/m0_wW-L_O-X-X.png,0,15,15,15,,,,,,,,,150.35799417551607,157.033327858313,157.7717829757603,157.7717829757603,157.7717829757603,158.65785635868087,158.65785635868087,right,0.30527639912907034,151.42193365679123,S4,T-A,2023-01-26_13h03.44.396,knowing_that_K_ONLY,2022.2.5,60.01205175531569,
Does Anna know that the book is here?,Does Anna think that the book is here?,Is the book here?,early,45,mem_5,mem_K,0,1,0,switch,O-X-O,O-B-O,B-X-O,X-X-O,L,M,M,stimuli/blue-L.png,stimuli/blue-M.png,stimuli/blue-M.png,mB-R,m0,stimuli/m0_w0_O-X-O.png,stimuli/m0_wW-R_O-X-O.png,stimuli/m0_none_O-X-O.png,stimuli/mW-R_none_O-X-O.png,stimuli/mB-R_none_O-B-O.png,stimuli/mB-R_none_B-X-O.png,stimuli/mB-R_none_X-X-O.png,stimuli/mW-L_none_X-X-O.png,stimuli/m0_none_X-X-O.png,stimuli/m0_wW-L_X-X-O.png,0,16,16,16,,,,,,,,,158.9912850772962,165.66455792437773,166.40684855740983,166.40684855740983,166.40684855740983,167.29098942573182,167.29098942573182,right,0.7434394578449428,160.04664116504136,S4,T-A,2023-01-26_13h03.44.396,knowing_that_K_ONLY,2022.2.5,60.01205175531569,
Does Anna know that the book is here?,Does Anna think that the book is here?,Is the book here?,early,30,per_2,per_K,1,0,1,no,X-X-B,O-X-B,none,X-X-B,R,L,R,stimuli/blue-R.png,stimuli/blue-L.png,stimuli/blue-R.png,mB-L,m0,stimuli/m0_w0_X-X-B.png,stimuli/m0_wW-R_X-X-B.png,stimuli/m0_none_X-X-B.png,stimuli/mW-R_none_X-X-B.png,stimuli/mB-L_none_X-X-B.png,stimuli/mB-L_none_O-X-B.png,stimuli/mB-L_none_X-X-B.png,stimuli/mW-L_none_X-X-B.png,stimuli/m0_none_X-X-B.png,stimuli/m0_wW-L_X-X-B.png,0,17,17,1,,,,,,,,,168.05780060321558,174.73261715227272,175.4723391190637,175.4723391190637,175.4723391190637,176.35781388450414,176.35781388450414,left,0.2938365794252604,169.11250385770109,S4,T-A,2023-01-26_13h03.44.396,knowing_that_K_ONLY,2022.2.5,60.01205175531569,
Does Anna know that the book is here?,Does Anna think that the book is here?,Is the book here?,early,49,mem_9,mem_K,0,1,0,switch,X-O-O,B-O-O,X-B-O,X-X-O,M,L,L,stimuli/blue-M.png,stimuli/blue-L.png,stimuli/blue-L.png,mB-R,m0,stimuli/m0_w0_X-O-O.png,stimuli/m0_wW-R_X-O-O.png,stimuli/m0_none_X-O-O.png,stimuli/mW-R_none_X-O-O.png,stimuli/mB-R_none_B-O-O.png,stimuli/mB-R_none_X-B-O.png,stimuli/mB-R_none_X-X-O.png,stimuli/mW-L_none_X-X-O.png,stimuli/m0_none_X-X-O.png,stimuli/m0_wW-L_X-X-O.png,0,18,18,20,,,,,,,,,176.67463208758272,183.35119251941796,184.06572603073437,184.06572603073437,184.06572603073437,184.97451640618965,184.97451640618965,right,0.2845166231272742,177.73306595510803,S4,T-A,2023-01-26_13h03.44.396,knowing_that_K_ONLY,2022.2.5,60.01205175531569,
Does Anna know that the book is here?,Does Anna think that the book is here?,Is the book here?,late,32,per_4,per_K,1,0,1,no,O-X-B,O-O-B,none,O-X-B,R,L,R,stimuli/blue-R.png,stimuli/blue-L.png,stimuli/blue-R.png,mB-M,m0,stimuli/m0_w0_O-X-B.png,stimuli/mW-R_w0_O-X-B.png,stimuli/mB-M_w0_O-X-B.png,stimuli/mB-M_w0_O-O-B.png,stimuli/mB-M_w0_O-X-B.png,stimuli/mW-L_w0_O-X-B.png,stimuli/m0_wW-R_O-X-B.png,stimuli/m0_none_O-X-B.png,stimuli/m0_none_O-X-B.png,stimuli/m0_wW-L_O-X-B.png,0,19,19,3,,,,,,,,,185.2912990001496,191.96593333338387,192.70165874180384,192.70165874180384,192.70165874180384,193.5912648026133,193.5912648026133,left,0.29154829459730536,186.3554919154849,S4,T-A,2023-01-26_13h03.44.396,knowing_that_K_ONLY,2022.2.5,60.01205175531569,
Does Anna know that the book is here?,Does Anna think that the book is here?,Is the book here?,late,33,per_5,per_K,1,0,1,no,X-B-O,O-B-O,none,X-B-O,M,R,M,stimuli/blue-M.png,stimuli/blue-R.png,stimuli/blue-M.png,mB-L,m0,stimuli/m0_w0_X-B-O.png,stimuli/mW-R_w0_X-B-O.png,stimuli/mB-L_w0_X-B-O.png,stimuli/mB-L_w0_O-B-O.png,stimuli/mB-L_w0_X-B-O.png,stimuli/mW-L_w0_X-B-O.png,stimuli/m0_wW-R_X-B-O.png,stimuli/m0_none_X-B-O.png,stimuli/m0_none_X-B-O.png,stimuli/m0_wW-L_X-B-O.png,0,20,20,4,,,,,,,,,193.90804033901077,200.5815733569907,201.31975162180606,201.31975162180606,201.31975162180606,202.20774597057607,202.20774597057607,left,0.2914125950774178,194.96949680836406,S4,T-A,2023-01-26_13h03.44.396,knowing_that_K_ONLY,2022.2.5,60.01205175531569,
Does Anna know that the book is here?,Does Anna think that the book is here?,Is the book here?,late,39,per_11,per_K,1,1,1,show,X-X-O,X-B-O,none,X-B-O,M,M,M,stimuli/blue-M.png,stimuli/blue-M.png,stimuli/blue-M.png,mB-M,m0,stimuli/m0_w0_X-X-O.png,stimuli/mW-R_w0_X-X-O.png,stimuli/mB-M_w0_X-X-O.png,stimuli/mB-M_w0_X-B-O.png,stimuli/mB-M_w0_X-B-O.png,stimuli/mW-L_w0_X-B-O.png,stimuli/m0_wW-R_X-B-O.png,stimuli/m0_none_X-B-O.png,stimuli/m0_none_X-B-O.png,stimuli/m0_wW-L_X-B-O.png,0,21,21,10,,,,,,,,,202.5243819578318,209.17686519422568,209.91095932153985,209.91095932153985,209.91095932153985,210.82459894870408,210.82459894870408,left,0.3219068043399602,203.57612292130943,S4,T-A,2023-01-26_13h03.44.396,knowing_that_K_ONLY,2022.2.5,60.01205175531569,
Does Anna know that the book is here?,Does Anna think that the book is here?,Is the book here?,late,34,per_6,per_K,1,0,1,no,X-B-X,O-B-X,none,X-B-X,M,R,M,stimuli/blue-M.png,stimuli/blue-R.png,stimuli/blue-M.png,mB-L,m0,stimuli/m0_w0_X-B-X.png,stimuli/mW-R_w0_X-B-X.png,stimuli/mB-L_w0_X-B-X.png,stimuli/mB-L_w0_O-B-X.png,stimuli/mB-L_w0_X-B-X.png,stimuli/mW-L_w0_X-B-X.png,stimuli/m0_wW-R_X-B-X.png,stimuli/m0_none_X-B-X.png,stimuli/m0_none_X-B-X.png,stimuli/m0_wW-L_X-B-X.png,0,22,22,5,,,,,,,,,211.17461668909527,217.84993048210163,218.58478811953682,218.58478811953682,218.58478811953682,219.47463381988928,219.47463381988928,left,0.34511526639107615,212.22897604305763,S4,T-A,2023-01-26_13h03.44.396,knowing_that_K_ONLY,2022.2.5,60.01205175531569,
Does Anna know that the book is here?,Does Anna think that the book is here?,Is the book here?,late,51,mem_11,mem_K,1,1,1,show,O-X-O,O-B-O,O-X-B,O-X-X,R,R,R,stimuli/blue-R.png,stimuli/blue-R.png,stimuli/blue-R.png,mB-L,m0,stimuli/m0_w0_O-X-O.png,stimuli/mW-R_w0_O-X-O.png,stimuli/mB-L_w0_O-B-O.png,stimuli/mB-L_w0_O-X-B.png,stimuli/mB-L_w0_O-X-X.png,stimuli/mW-L_w0_O-X-X.png,stimuli/m0_wW-R_O-X-X.png,stimuli/m0_none_O-X-X.png,stimuli/m0_none_O-X-X.png,stimuli/m0_wW-L_O-X-X.png,0,23,23,22,,,,,,,,,219.8410865968326,226.51801370596513,227.254702484468,227.254702484468,227.254702484468,228.14125739212614,228.14125739212614,left,0.4133791661588475,220.89876946550794,S4,T-A,2023-01-26_13h03.44.396,knowing_that_K_ONLY,2022.2.5,60.01205175531569,
Does Anna know that the book is here?,Does Anna think that the book is here?,Is the book here?,late,40,per_12,per_K,1,1,1,show,O-X-X,O-B-X,none,O-B-X,M,M,M,stimuli/blue-M.png,stimuli/blue-M.png,stimuli/blue-M.png,mB-M,m0,stimuli/m0_w0_O-X-X.png,stimuli/mW-R_w0_O-X-X.png,stimuli/mB-M_w0_O-X-X.png,stimuli/mB-M_w0_O-B-X.png,stimuli/mB-M_w0_O-B-X.png,stimuli/mW-L_w0_O-B-X.png,stimuli/m0_wW-R_O-B-X.png,stimuli/m0_none_O-B-X.png,stimuli/m0_none_O-B-X.png,stimuli/m0_wW-L_O-B-X.png,1,0,24,11,,,,,,,,,228.57444384065457,235.2472694888711,235.98579229577444,235.98579229577444,235.98579229577444,236.874569723499,236.874569723499,left,0.3925000517629087,229.6339453391265,S4,T-A,2023-01-26_13h03.44.396,knowing_that_K_ONLY,2022.2.5,60.01205175531569,
Does Anna know that the book is here?,Does Anna think that the book is here?,Is the book here?,late,34,per_6,per_K,1,0,1,no,X-B-X,O-B-X,none,X-B-X,M,R,M,stimuli/blue-M.png,stimuli/blue-R.png,stimuli/blue-M.png,mB-L,m0,stimuli/m0_w0_X-B-X.png,stimuli/mW-R_w0_X-B-X.png,stimuli/mB-L_w0_X-B-X.png,stimuli/mB-L_w0_O-B-X.png,stimuli/mB-L_w0_X-B-X.png,stimuli/mW-L_w0_X-B-X.png,stimuli/m0_wW-R_X-B-X.png,stimuli/m0_none_X-B-X.png,stimuli/m0_none_X-B-X.png,stimuli/m0_wW-L_X-B-X.png,1,1,25,5,,,,,,,,,237.29133621323854,243.96527729206719,244.70444972417317,244.70444972417317,244.70444972417317,245.59142359986436,245.59142359986436,left,0.3397649211110547,238.35316673840862,S4,T-A,2023-01-26_13h03.44.396,knowing_that_K_ONLY,2022.2.5,60.01205175531569,
Does Anna know that the book is here?,Does Anna think that the book is here?,Is the book here?,early,42,mem_2,mem_K,0,1,0,switch,O-O-X,O-O-B,B-O-X,X-O-X,L,R,R,stimuli/blue-L.png,stimuli/blue-R.png,stimuli/blue-R.png,mB-M,m0,stimuli/m0_w0_O-O-X.png,stimuli/m0_wW-R_O-O-X.png,stimuli/m0_none_O-O-X.png,stimuli/mW-R_none_O-O-X.png,stimuli/mB-M_none_O-O-B.png,stimuli/mB-M_none_B-O-X.png,stimuli/mB-M_none_X-O-X.png,stimuli/mW-L_none_X-O-X.png,stimuli/m0_none_X-O-X.png,stimuli/m0_wW-L_X-O-X.png,1,2,26,13,,,,,,,,,245.9581586830318,252.62949067458976,253.36821269977372,253.36821269977372,253.36821269977372,254.258035302395,254.258035302395,right,0.2976467515109107,247.0139584406279,S4,T-A,2023-01-26_13h03.44.396,knowing_that_K_ONLY,2022.2.5,60.01205175531569,
Does Anna know that the book is here?,Does Anna think that the book is here?,Is the book here?,late,51,mem_11,mem_K,1,1,1,show,O-X-O,O-B-O,O-X-B,O-X-X,R,R,R,stimuli/blue-R.png,stimuli/blue-R.png,stimuli/blue-R.png,mB-L,m0,stimuli/m0_w0_O-X-O.png,stimuli/mW-R_w0_O-X-O.png,stimuli/mB-L_w0_O-B-O.png,stimuli/mB-L_w0_O-X-B.png,stimuli/mB-L_w0_O-X-X.png,stimuli/mW-L_w0_O-X-X.png,stimuli/m0_wW-R_O-X-X.png,stimuli/m0_none_O-X-X.png,stimuli/m0_none_O-X-X.png,stimuli/m0_wW-L_O-X-X.png,1,3,27,22,,,,,,,,,254.57470048265532,261.2507627081359,261.98870422062464,261.98870422062464,261.98870422062464,262.8746062950231,262.8746062950231,left,0.28850323671940714,255.62777117278893,S4,T-A,2023-01-26_13h03.44.396,knowing_that_K_ONLY,2022.2.5,60.01205175531569,
Does Anna know that the book is here?,Does Anna think that the book is here?,Is the book here?,early,46,mem_6,mem_K,0,1,0,switch,O-X-O,O-B-O,O-X-B,O-X-X,R,M,M,stimuli/blue-R.png,stimuli/blue-M.png,stimuli/blue-M.png,mB-L,m0,stimuli/m0_w0_O-X-O.png,stimuli/m0_wW-R_O-X-O.png,stimuli/m0_none_O-X-O.png,stimuli/mW-R_none_O-X-O.png,stimuli/mB-L_none_O-B-O.png,stimuli/mB-L_none_O-X-B.png,stimuli/mB-L_none_O-X-X.png,stimuli/mW-L_none_O-X-X.png,stimuli/m0_none_O-X-X.png,stimuli/m0_wW-L_O-X-X.png,1,4,28,17,,,,,,,,,263.1913510343293,269.8384306723019,270.6036256464431,270.6036256464431,270.6036256464431,271.4915609675227,271.4915609675227,right,0.3038449779851362,264.2490938931005,S4,T-A,2023-01-26_13h03.44.396,knowing_that_K_ONLY,2022.2.5,60.01205175531569,
Does Anna know that the book is here?,Does Anna think that the book is here?,Is the book here?,early,44,mem_4,mem_K,0,1,0,switch,O-X-O,O-B-O,O-X-B,O-X-X,R,M,M,stimuli/blue-R.png,stimuli/blue-M.png,stimuli/blue-M.png,mB-L,m0,stimuli/m0_w0_O-X-O.png,stimuli/m0_wW-R_O-X-O.png,stimuli/m0_none_O-X-O.png,stimuli/mW-R_none_O-X-O.png,stimuli/mB-L_none_O-B-O.png,stimuli/mB-L_none_O-X-B.png,stimuli/mB-L_none_O-X-X.png,stimuli/mW-L_none_O-X-X.png,stimuli/m0_none_O-X-X.png,stimuli/m0_wW-L_O-X-X.png,1,5,29,15,,,,,,,,,271.8246271793032,278.4986962582916,279.2368276860798,279.2368276860798,279.2368276860798,280.12461704190355,280.12461704190355,right,0.342562640318647,272.8867916598683,S4,T-A,2023-01-26_13h03.44.396,knowing_that_K_ONLY,2022.2.5,60.01205175531569,
Does Anna know that the book is here?,Does Anna think that the book is here?,Is the book here?,early,35,per_7,per_K,1,0,1,switch,B-X-O,O-X-B,none,X-X-B,R,L,R,stimuli/blue-R.png,stimuli/blue-L.png,stimuli/blue-R.png,mB-R,m0,stimuli/m0_w0_B-X-O.png,stimuli/m0_wW-R_B-X-O.png,stimuli/m0_none_B-X-O.png,stimuli/mW-R_none_B-X-O.png,stimuli/mB-R_none_B-X-O.png,stimuli/mB-R_none_O-X-B.png,stimuli/mB-R_none_X-X-B.png,stimuli/mW-L_none_X-X-B.png,stimuli/m0_none_X-X-B.png,stimuli/m0_wW-L_X-X-B.png,1,6,30,6,,,,,,,,,280.49125363875646,287.16701238485985,287.9047447341727,287.9047447341727,287.9047447341727,288.79134070454165,288.79134070454165,left,0.4035096751758829,281.5544742014026,S4,T-A,2023-01-26_13h03.44.396,knowing_that_K_ONLY,2022.2.5,60.01205175531569,
Does Anna know that the book is here?,Does Anna think that the book is here?,Is the book here?,early,47,mem_7,mem_K,0,1,0,switch,X-O-O,B-O-O,X-O-B,X-O-X,R,L,L,stimuli/blue-R.png,stimuli/blue-L.png,stimuli/blue-L.png,mB-M,m0,stimuli/m0_w0_X-O-O.png,stimuli/m0_wW-R_X-O-O.png,stimuli/m0_none_X-O-O.png,stimuli/mW-R_none_X-O-O.png,stimuli/mB-M_none_B-O-O.png,stimuli/mB-M_none_X-O-B.png,stimuli/mB-M_none_X-O-X.png,stimuli/mW-L_none_X-O-X.png,stimuli/m0_none_X-O-X.png,stimuli/m0_wW-L_X-O-X.png,1,7,31,18,,,,,,,,,289.2249073040439,295.89685908623505,296.63465046312194,296.63465046312194,296.63465046312194,297.52471013879403,297.52471013879403,right,0.3099581917049363,290.2793782973895,S4,T-A,2023-01-26_13h03.44.396,knowing_that_K_ONLY,2022.2.5,60.01205175531569,
Does Anna know that the book is here?,Does Anna think that the book is here?,Is the book here?,early,36,per_8,per_K,1,0,1,switch,O-X-B,B-X-O,none,B-X-X,L,M,L,stimuli/blue-L.png,stimuli/blue-M.png,stimuli/blue-L.png,mB-L,m0,stimuli/m0_w0_O-X-B.png,stimuli/m0_wW-R_O-X-B.png,stimuli/m0_none_O-X-B.png,stimuli/mW-R_none_O-X-B.png,stimuli/mB-L_none_O-X-B.png,stimuli/mB-L_none_B-X-O.png,stimuli/mB-L_none_B-X-X.png,stimuli/mW-L_none_B-X-X.png,stimuli/m0_none_B-X-X.png,stimuli/m0_wW-L_B-X-X.png,1,8,32,7,,,,,,,,,297.85798519302625,304.53169465239625,305.27261289197486,305.27261289197486,305.27261289197486,306.15807514602784,306.15807514602784,left,0.2928029535105452,298.91333743103314,S4,T-A,2023-01-26_13h03.44.396,knowing_that_K_ONLY,2022.2.5,60.01205175531569,
Does Anna know that the book is here?,Does Anna think that the book is here?,Is the book here?,early,30,per_2,per_K,1,0,1,no,X-X-B,O-X-B,none,X-X-B,R,L,R,stimuli/blue-R.png,stimuli/blue-L.png,stimuli/blue-R.png,mB-L,m0,stimuli/m0_w0_X-X-B.png,stimuli/m0_wW-R_X-X-B.png,stimuli/m0_none_X-X-B.png,stimuli/mW-R_none_X-X-B.png,stimuli/mB-L_none_X-X-B.png,stimuli/mB-L_none_O-X-B.png,stimuli/mB-L_none_X-X-B.png,stimuli/mW-L_none_X-X-B.png,stimuli/m0_none_X-X-B.png,stimuli/m0_wW-L_X-X-B.png,1,9,33,1,,,,,,,,,306.47473711834755,313.14818801078945,313.88902284181677,313.88902284181677,313.88902284181677,314.77473243465647,314.77473243465647,left,0.26081701228395104,307.5327010101173,S4,T-A,2023-01-26_13h03.44.396,knowing_that_K_ONLY,2022.2.5,60.01205175531569,
Does Anna know that the book is here?,Does Anna think that the book is here?,Is the book here?,early,49,mem_9,mem_K,0,1,0,switch,X-O-O,B-O-O,X-B-O,X-X-O,M,L,L,stimuli/blue-M.png,stimuli/blue-L.png,stimuli/blue-L.png,mB-R,m0,stimuli/m0_w0_X-O-O.png,stimuli/m0_wW-R_X-O-O.png,stimuli/m0_none_X-O-O.png,stimuli/mW-R_none_X-O-O.png,stimuli/mB-R_none_B-O-O.png,stimuli/mB-R_none_X-B-O.png,stimuli/mB-R_none_X-X-O.png,stimuli/mW-L_none_X-X-O.png,stimuli/m0_none_X-X-O.png,stimuli/m0_wW-L_X-X-O.png,1,10,34,20,,,,,,,,,315.0582436316181,321.73217925673816,322.4726942476118,322.4726942476118,322.4726942476118,323.3581192884594,323.3581192884594,right,0.3098305123858154,316.1208508197451,S4,T-A,2023-01-26_13h03.44.396,knowing_that_K_ONLY,2022.2.5,60.01205175531569,
Does Anna know that the book is here?,Does Anna think that the book is here?,Is the book here?,early,29,per_1,per_K,1,0,1,no,B-X-X,B-O-X,none,B-X-X,L,M,L,stimuli/blue-L.png,stimuli/blue-M.png,stimuli/blue-L.png,mB-M,m0,stimuli/m0_w0_B-X-X.png,stimuli/m0_wW-R_B-X-X.png,stimuli/m0_none_B-X-X.png,stimuli/mW-R_none_B-X-X.png,stimuli/mB-M_none_B-X-X.png,stimuli/mB-M_none_B-O-X.png,stimuli/mB-M_none_B-X-X.png,stimuli/mW-L_none_B-X-X.png,stimuli/m0_none_B-X-X.png,stimuli/m0_wW-L_B-X-X.png,1,11,35,0,,,,,,,,,323.69132280373015,330.3655317527009,331.1026491235243,331.1026491235243,331.1026491235243,331.9913710524561,331.9913710524561,left,0.3155898809200153,324.75342825672124,S4,T-A,2023-01-26_13h03.44.396,knowing_that_K_ONLY,2022.2.5,60.01205175531569,
Does Anna know that the book is here?,Does Anna think that the book is here?,Is the book here?,early,43,mem_3,mem_K,0,1,0,switch,O-O-X,O-O-B,B-O-X,X-O-X,L,R,R,stimuli/blue-L.png,stimuli/blue-R.png,stimuli/blue-R.png,mB-M,m0,stimuli/m0_w0_O-O-X.png,stimuli/m0_wW-R_O-O-X.png,stimuli/m0_none_O-O-X.png,stimuli/mW-R_none_O-O-X.png,stimuli/mB-M_none_O-O-B.png,stimuli/mB-M_none_B-O-X.png,stimuli/mB-M_none_X-O-X.png,stimuli/mW-L_none_X-O-X.png,stimuli/m0_none_X-O-X.png,stimuli/m0_wW-L_X-O-X.png,1,12,36,14,,,,,,,,,332.32482062326744,338.9759218422696,339.7362094994169,339.7362094994169,339.7362094994169,340.6248900449136,340.6248900449136,right,0.2986627332866192,333.3775897589512,S4,T-A,2023-01-26_13h03.44.396,knowing_that_K_ONLY,2022.2.5,60.01205175531569,
Does Anna know that the book is here?,Does Anna think that the book is here?,Is the book here?,early,31,per_3,per_K,1,0,1,no,O-B-X,O-B-O,none,O-B-X,M,R,M,stimuli/blue-M.png,stimuli/blue-R.png,stimuli/blue-M.png,mB-R,m0,stimuli/m0_w0_O-B-X.png,stimuli/m0_wW-R_O-B-X.png,stimuli/m0_none_O-B-X.png,stimuli/mW-R_none_O-B-X.png,stimuli/mB-R_none_O-B-X.png,stimuli/mB-R_none_O-B-O.png,stimuli/mB-R_none_O-B-X.png,stimuli/mW-L_none_O-B-X.png,stimuli/m0_none_O-B-X.png,stimuli/m0_wW-L_O-B-X.png,1,13,37,2,,,,,,,,,340.941397711169,347.618986636051,348.3550379797816,348.3550379797816,348.3550379797816,349.2413856489584,349.2413856489584,left,0.33058932586573064,341.9877633067081,S4,T-A,2023-01-26_13h03.44.396,knowing_that_K_ONLY,2022.2.5,60.01205175531569,
Does Anna know that the book is here?,Does Anna think that the book is here?,Is the book here?,early,48,mem_8,mem_K,0,1,0,switch,X-O-O,B-O-O,X-B-O,X-X-O,M,L,L,stimuli/blue-M.png,stimuli/blue-L.png,stimuli/blue-L.png,mB-R,m0,stimuli/m0_w0_X-O-O.png,stimuli/m0_wW-R_X-O-O.png,stimuli/m0_none_X-O-O.png,stimuli/mW-R_none_X-O-O.png,stimuli/mB-R_none_B-O-O.png,stimuli/mB-R_none_X-B-O.png,stimuli/mB-R_none_X-X-O.png,stimuli/mW-L_none_X-X-O.png,stimuli/m0_none_X-X-O.png,stimuli/m0_wW-L_X-X-O.png,1,14,38,19,,,,,,,,,349.59150123409927,356.26809887902346,357.00666467344854,357.00666467344854,357.00666467344854,357.89153568830807,357.89153568830807,right,0.29612807219382375,350.64965696586296,S4,T-A,2023-01-26_13h03.44.396,knowing_that_K_ONLY,2022.2.5,60.01205175531569,
Does Anna know that the book is here?,Does Anna think that the book is here?,Is the book here?,late,38,per_10,per_K,1,1,1,show,X-X-X,X-O-X,none,X-O-B,R,R,R,stimuli/blue-R.png,stimuli/blue-R.png,stimuli/blue-R.png,mB-R,m0,stimuli/m0_w0_X-X-X.png,stimuli/mW-R_w0_X-X-X.png,stimuli/mB-R_w0_X-X-X.png,stimuli/mB-R_w0_X-O-X.png,stimuli/mB-R_w0_X-O-B.png,stimuli/mW-L_w0_X-O-B.png,stimuli/m0_wW-R_X-O-B.png,stimuli/m0_none_X-O-B.png,stimuli/m0_none_X-O-B.png,stimuli/m0_wW-L_X-O-B.png,1,15,39,9,,,,,,,,,358.20799298852216,364.88552031933796,365.6208511405857,365.6208511405857,365.6208511405857,366.5082484757295,366.5082484757295,left,0.26374593982473016,359.2710143327713,S4,T-A,2023-01-26_13h03.44.396,knowing_that_K_ONLY,2022.2.5,60.01205175531569,
Does Anna know that the book is here?,Does Anna think that the book is here?,Is the book here?,early,37,per_9,per_K,1,0,1,switch,X-O-B,X-B-O,none,X-B-X,M,R,M,stimuli/blue-M.png,stimuli/blue-R.png,stimuli/blue-M.png,mB-R,m0,stimuli/m0_w0_X-O-B.png,stimuli/m0_wW-R_X-O-B.png,stimuli/m0_none_X-O-B.png,stimuli/mW-R_none_X-O-B.png,stimuli/mB-R_none_X-O-B.png,stimuli/mB-R_none_X-B-O.png,stimuli/mB-R_none_X-B-X.png,stimuli/mW-L_none_X-B-X.png,stimuli/m0_none_X-B-X.png,stimuli/m0_wW-L_X-B-X.png,1,16,40,8,,,,,,,,,366.7913673311705,373.46705710480455,374.2069571170723,374.2069571170723,374.2069571170723,375.09154454246163,375.09154454246163,left,0.28741379105485976,367.8539145292016,S4,T-A,2023-01-26_13h03.44.396,knowing_that_K_ONLY,2022.2.5,60.01205175531569,
Does Anna know that the book is here?,Does Anna think that the book is here?,Is the book here?,late,50,mem_10,mem_K,1,1,1,show,O-O-X,O-O-B,O-B-X,O-X-X,M,M,M,stimuli/blue-M.png,stimuli/blue-M.png,stimuli/blue-M.png,mB-L,m0,stimuli/m0_w0_O-O-X.png,stimuli/mW-R_w0_O-O-X.png,stimuli/mB-L_w0_O-O-B.png,stimuli/mB-L_w0_O-B-X.png,stimuli/mB-L_w0_O-X-X.png,stimuli/mW-L_w0_O-X-X.png,stimuli/m0_wW-R_O-X-X.png,stimuli/m0_none_O-X-X.png,stimuli/m0_none_O-X-X.png,stimuli/m0_wW-L_O-X-X.png,1,17,41,21,,,,,,,,,375.4081182939699,382.080817866954,382.81799298210535,382.81799298210535,382.81799298210535,383.70803373050876,383.70803373050876,left,0.263620185200125,376.46248053526506,S4,T-A,2023-01-26_13h03.44.396,knowing_that_K_ONLY,2022.2.5,60.01205175531569,
Does Anna know that the book is here?,Does Anna think that the book is here?,Is the book here?,late,52,mem_12,mem_K,1,1,1,show,X-O-O,B-O-O,X-O-B,X-O-X,R,R,R,stimuli/blue-R.png,stimuli/blue-R.png,stimuli/blue-R.png,mB-M,m0,stimuli/m0_w0_X-O-O.png,stimuli/mW-R_w0_X-O-O.png,stimuli/mB-M_w0_B-O-O.png,stimuli/mB-M_w0_X-O-B.png,stimuli/mB-M_w0_X-O-X.png,stimuli/mW-L_w0_X-O-X.png,stimuli/m0_wW-R_X-O-X.png,stimuli/m0_none_X-O-X.png,stimuli/m0_none_X-O-X.png,stimuli/m0_wW-L_X-O-X.png,1,18,42,23,,,,,,,,,383.9915012982674,390.66694084589835,391.4061745512299,391.4061745512299,391.4061745512299,392.2915957425721,392.2915957425721,right,0.28754916973412037,385.04521583917085,S4,T-A,2023-01-26_13h03.44.396,knowing_that_K_ONLY,2022.2.5,60.01205175531569,
Does Anna know that the book is here?,Does Anna think that the book is here?,Is the book here?,early,41,mem_1,mem_K,0,1,0,switch,O-O-X,O-O-B,O-B-X,O-X-X,M,R,R,stimuli/blue-M.png,stimuli/blue-R.png,stimuli/blue-R.png,mB-L,m0,stimuli/m0_w0_O-O-X.png,stimuli/m0_wW-R_O-O-X.png,stimuli/m0_none_O-O-X.png,stimuli/mW-R_none_O-O-X.png,stimuli/mB-L_none_O-O-B.png,stimuli/mB-L_none_O-B-X.png,stimuli/mB-L_none_O-X-X.png,stimuli/mW-L_none_O-X-X.png,stimuli/m0_none_O-X-X.png,stimuli/m0_wW-L_O-X-X.png,1,19,43,12,,,,,,,,,392.6083366322564,399.28442644665483,400.0235388886649,400.0235388886649,400.0235388886649,400.9083816729253,400.9083816729253,right,0.27954931603744626,393.6641492219642,S4,T-A,2023-01-26_13h03.44.396,knowing_that_K_ONLY,2022.2.5,60.01205175531569,
Does Anna know that the book is here?,Does Anna think that the book is here?,Is the book here?,late,39,per_11,per_K,1,1,1,show,X-X-O,X-B-O,none,X-B-O,M,M,M,stimuli/blue-M.png,stimuli/blue-M.png,stimuli/blue-M.png,mB-M,m0,stimuli/m0_w0_X-X-O.png,stimuli/mW-R_w0_X-X-O.png,stimuli/mB-M_w0_X-X-O.png,stimuli/mB-M_w0_X-B-O.png,stimuli/mB-M_w0_X-B-O.png,stimuli/mW-L_w0_X-B-O.png,stimuli/m0_wW-R_X-B-O.png,stimuli/m0_none_X-B-O.png,stimuli/m0_none_X-B-O.png,stimuli/m0_wW-L_X-B-O.png,1,20,44,10,,,,,,,,,401.20758621091954,407.88226770202164,408.62007094873115,408.62007094873115,408.62007094873115,409.49151669675484,409.49151669675484,left,0.46508131257724017,402.2711314257467,S4,T-A,2023-01-26_13h03.44.396,knowing_that_K_ONLY,2022.2.5,60.01205175531569,
Does Anna know that the book is here?,Does Anna think that the book is here?,Is the book here?,late,33,per_5,per_K,1,0,1,no,X-B-O,O-B-O,none,X-B-O,M,R,M,stimuli/blue-M.png,stimuli/blue-R.png,stimuli/blue-M.png,mB-L,m0,stimuli/m0_w0_X-B-O.png,stimuli/mW-R_w0_X-B-O.png,stimuli/mB-L_w0_X-B-O.png,stimuli/mB-L_w0_O-B-O.png,stimuli/mB-L_w0_X-B-O.png,stimuli/mW-L_w0_X-B-O.png,stimuli/m0_wW-R_X-B-O.png,stimuli/m0_none_X-B-O.png,stimuli/m0_none_X-B-O.png,stimuli/m0_wW-L_X-B-O.png,1,21,45,4,,,,,,,,,409.974828226259,416.65190547099337,417.38819966244046,417.38819966244046,417.38819966244046,418.2749229912879,418.2749229912879,left,0.27273643179796636,411.0395889620995,S4,T-A,2023-01-26_13h03.44.396,knowing_that_K_ONLY,2022.2.5,60.01205175531569,
Does Anna know that the book is here?,Does Anna think that the book is here?,Is the book here?,early,45,mem_5,mem_K,0,1,0,switch,O-X-O,O-B-O,B-X-O,X-X-O,L,M,M,stimuli/blue-L.png,stimuli/blue-M.png,stimuli/blue-M.png,mB-R,m0,stimuli/m0_w0_O-X-O.png,stimuli/m0_wW-R_O-X-O.png,stimuli/m0_none_O-X-O.png,stimuli/mW-R_none_O-X-O.png,stimuli/mB-R_none_O-B-O.png,stimuli/mB-R_none_B-X-O.png,stimuli/mB-R_none_X-X-O.png,stimuli/mW-L_none_X-X-O.png,stimuli/m0_none_X-X-O.png,stimuli/m0_wW-L_X-X-O.png,1,22,46,16,,,,,,,,,418.5747867785394,425.2468351222342,425.98720158147626,425.98720158147626,425.98720158147626,426.87498869164847,426.87498869164847,right,0.712058229604736,419.6284544822993,S4,T-A,2023-01-26_13h03.44.396,knowing_that_K_ONLY,2022.2.5,60.01205175531569,
Does Anna know that the book is here?,Does Anna think that the book is here?,Is the book here?,late,32,per_4,per_K,1,0,1,no,O-X-B,O-O-B,none,O-X-B,R,L,R,stimuli/blue-R.png,stimuli/blue-L.png,stimuli/blue-R.png,mB-M,m0,stimuli/m0_w0_O-X-B.png,stimuli/mW-R_w0_O-X-B.png,stimuli/mB-M_w0_O-X-B.png,stimuli/mB-M_w0_O-O-B.png,stimuli/mB-M_w0_O-X-B.png,stimuli/mW-L_w0_O-X-B.png,stimuli/m0_wW-R_O-X-B.png,stimuli/m0_none_O-X-B.png,stimuli/m0_none_O-X-B.png,stimuli/m0_wW-L_O-X-B.png,1,23,47,3,,,,,,,,,427.60818745906,434.2827213810524,435.0213561479468,435.0213561479468,435.0213561479468,435.9081824545283,435.9081824545283,left,0.6155701194657013,428.66077085002325,S4,T-A,2023-01-26_13h03.44.396,knowing_that_K_ONLY,2022.2.5,60.01205175531569,
Does Anna know that the book is here?,Does Anna think that the book is here?,Is the book here?,early,42,mem_2,mem_K,0,1,0,switch,O-O-X,O-O-B,B-O-X,X-O-X,L,R,R,stimuli/blue-L.png,stimuli/blue-R.png,stimuli/blue-R.png,mB-M,m0,stimuli/m0_w0_O-O-X.png,stimuli/m0_wW-R_O-O-X.png,stimuli/m0_none_O-O-X.png,stimuli/mW-R_none_O-O-X.png,stimuli/mB-M_none_O-O-B.png,stimuli/mB-M_none_B-O-X.png,stimuli/mB-M_none_X-O-X.png,stimuli/mW-L_none_X-O-X.png,stimuli/m0_none_X-O-X.png,stimuli/m0_wW-L_X-O-X.png,2,0,48,13,,,,,,,,,436.5416013565846,443.21148652851116,443.95416437019594,443.95416437019594,443.95416437019594,444.84155496850144,444.84155496850144,right,0.521713232039474,437.6018082998926,S4,T-A,2023-01-26_13h03.44.396,knowing_that_K_ONLY,2022.2.5,60.01205175531569,
Does Anna know that the book is here?,Does Anna think that the book is here?,Is the book here?,early,36,per_8,per_K,1,0,1,switch,O-X-B,B-X-O,none,B-X-X,L,M,L,stimuli/blue-L.png,stimuli/blue-M.png,stimuli/blue-L.png,mB-L,m0,stimuli/m0_w0_O-X-B.png,stimuli/m0_wW-R_O-X-B.png,stimuli/m0_none_O-X-B.png,stimuli/mW-R_none_O-X-B.png,stimuli/mB-L_none_O-X-B.png,stimuli/mB-L_none_B-X-O.png,stimuli/mB-L_none_B-X-X.png,stimuli/mW-L_none_B-X-X.png,stimuli/m0_none_B-X-X.png,stimuli/m0_wW-L_B-X-X.png,2,1,49,7,,,,,,,,,445.4147457543295,452.0991703403415,452.83765529247466,452.83765529247466,452.83765529247466,453.72491532412823,453.72491532412823,left,0.7026721879374236,446.48872443125583,S4,T-A,2023-01-26_13h03.44.396,knowing_that_K_ONLY,2022.2.5,60.01205175531569,
Does Anna know that the book is here?,Does Anna think that the book is here?,Is the book here?,early,41,mem_1,mem_K,0,1,0,switch,O-O-X,O-O-B,O-B-X,O-X-X,M,R,R,stimuli/blue-M.png,stimuli/blue-R.png,stimuli/blue-R.png,mB-L,m0,stimuli/m0_w0_O-O-X.png,stimuli/m0_wW-R_O-O-X.png,stimuli/m0_none_O-O-X.png,stimuli/mW-R_none_O-O-X.png,stimuli/mB-L_none_O-O-B.png,stimuli/mB-L_none_O-B-X.png,stimuli/mB-L_none_O-X-X.png,stimuli/mW-L_none_O-X-X.png,stimuli/m0_none_O-X-X.png,stimuli/m0_wW-L_O-X-X.png,2,2,50,12,,,,,,,,,454.45821610675193,461.132923582918,461.8684972516494,461.8684972516494,461.8684972516494,462.7583878644509,462.7583878644509,right,0.46905284840613604,455.52414488466457,S4,T-A,2023-01-26_13h03.44.396,knowing_that_K_ONLY,2022.2.5,60.01205175531569,
Does Anna know that the book is here?,Does Anna think that the book is here?,Is the book here?,late,40,per_12,per_K,1,1,1,show,O-X-X,O-B-X,none,O-B-X,M,M,M,stimuli/blue-M.png,stimuli/blue-M.png,stimuli/blue-M.png,mB-M,m0,stimuli/m0_w0_O-X-X.png,stimuli/mW-R_w0_O-X-X.png,stimuli/mB-M_w0_O-X-X.png,stimuli/mB-M_w0_O-B-X.png,stimuli/mB-M_w0_O-B-X.png,stimuli/mW-L_w0_O-B-X.png,stimuli/m0_wW-R_O-B-X.png,stimuli/m0_none_O-B-X.png,stimuli/m0_none_O-B-X.png,stimuli/m0_wW-L_O-B-X.png,2,3,51,11,,,,,,,,,463.25850239093415,469.9305112758884,470.6705187569605,470.6705187569605,470.6705187569605,471.5582513308618,471.5582513308618,left,0.2845814252505079,464.3126580353128,S4,T-A,2023-01-26_13h03.44.396,knowing_that_K_ONLY,2022.2.5,60.01205175531569,
Does Anna know that the book is here?,Does Anna think that the book is here?,Is the book here?,early,43,mem_3,mem_K,0,1,0,switch,O-O-X,O-O-B,B-O-X,X-O-X,L,R,R,stimuli/blue-L.png,stimuli/blue-R.png,stimuli/blue-R.png,mB-M,m0,stimuli/m0_w0_O-O-X.png,stimuli/m0_wW-R_O-O-X.png,stimuli/m0_none_O-O-X.png,stimuli/mW-R_none_O-O-X.png,stimuli/mB-M_none_O-O-B.png,stimuli/mB-M_none_B-O-X.png,stimuli/mB-M_none_X-O-X.png,stimuli/mW-L_none_X-O-X.png,stimuli/m0_none_X-O-X.png,stimuli/m0_wW-L_X-O-X.png,2,4,52,14,,,,,,,,,471.8750268672593,478.5475682844408,479.28559865930583,479.28559865930583,479.28559865930583,480.17513542680535,480.17513542680535,right,0.30888927762862295,472.9274299672106,S4,T-A,2023-01-26_13h03.44.396,knowing_that_K_ONLY,2022.2.5,60.01205175531569,
Does Anna know that the book is here?,Does Anna think that the book is here?,Is the book here?,late,52,mem_12,mem_K,1,1,1,show,X-O-O,B-O-O,X-O-B,X-O-X,R,R,R,stimuli/blue-R.png,stimuli/blue-R.png,stimuli/blue-R.png,mB-M,m0,stimuli/m0_w0_X-O-O.png,stimuli/mW-R_w0_X-O-O.png,stimuli/mB-M_w0_B-O-O.png,stimuli/mB-M_w0_X-O-B.png,stimuli/mB-M_w0_X-O-X.png,stimuli/mW-L_w0_X-O-X.png,stimuli/m0_wW-R_X-O-X.png,stimuli/m0_none_X-O-X.png,stimuli/m0_none_X-O-X.png,stimuli/m0_wW-L_X-O-X.png,2,5,53,23,,,,,,,,,480.50828729278874,487.18157746328507,487.9210960412165,487.9210960412165,487.9210960412165,488.8084705993533,488.8084705993533,left,0.4111932176165283,481.56566122861113,S4,T-A,2023-01-26_13h03.44.396,knowing_that_K_ONLY,2022.2.5,60.01205175531569,
Does Anna know that the book is here?,Does Anna think that the book is here?,Is the book here?,early,35,per_7,per_K,1,0,1,switch,B-X-O,O-X-B,none,X-X-B,R,L,R,stimuli/blue-R.png,stimuli/blue-L.png,stimuli/blue-R.png,mB-R,m0,stimuli/m0_w0_B-X-O.png,stimuli/m0_wW-R_B-X-O.png,stimuli/m0_none_B-X-O.png,stimuli/mW-R_none_B-X-O.png,stimuli/mB-R_none_B-X-O.png,stimuli/mB-R_none_O-X-B.png,stimuli/mB-R_none_X-X-B.png,stimuli/mW-L_none_X-X-B.png,stimuli/m0_none_X-X-B.png,stimuli/m0_wW-L_X-X-B.png,2,6,54,6,,,,,,,,,489.24164517829195,495.9170263397973,496.6320028795162,496.6320028795162,496.6320028795162,497.5418207856128,497.5418207856128,left,0.3017077912809327,490.3029450959293,S4,T-A,2023-01-26_13h03.44.396,knowing_that_K_ONLY,2022.2.5,60.01205175531569,
Does Anna know that the book is here?,Does Anna think that the book is here?,Is the book here?,early,29,per_1,per_K,1,0,1,no,B-X-X,B-O-X,none,B-X-X,L,M,L,stimuli/blue-L.png,stimuli/blue-M.png,stimuli/blue-L.png,mB-M,m0,stimuli/m0_w0_B-X-X.png,stimuli/m0_wW-R_B-X-X.png,stimuli/m0_none_B-X-X.png,stimuli/mW-R_none_B-X-X.png,stimuli/mB-M_none_B-X-X.png,stimuli/mB-M_none_B-O-X.png,stimuli/mB-M_none_B-X-X.png,stimuli/mW-L_none_B-X-X.png,stimuli/m0_none_B-X-X.png,stimuli/m0_wW-L_B-X-X.png,2,7,55,0,,,,,,,,,497.8749758596532,504.5479105807608,505.26509488373995,505.26509488373995,505.26509488373995,506.1751620534342,506.1751620534342,left,0.46137475967407227,498.9369237985229,S4,T-A,2023-01-26_13h03.44.396,knowing_that_K_ONLY,2022.2.5,60.01205175531569,
Does Anna know that the book is here?,Does Anna think that the book is here?,Is the book here?,early,46,mem_6,mem_K,0,1,0,switch,O-X-O,O-B-O,O-X-B,O-X-X,R,M,M,stimuli/blue-R.png,stimuli/blue-M.png,stimuli/blue-M.png,mB-L,m0,stimuli/m0_w0_O-X-O.png,stimuli/m0_wW-R_O-X-O.png,stimuli/m0_none_O-X-O.png,stimuli/mW-R_none_O-X-O.png,stimuli/mB-L_none_O-B-O.png,stimuli/mB-L_none_O-X-B.png,stimuli/mB-L_none_O-X-X.png,stimuli/mW-L_none_O-X-X.png,stimuli/m0_none_O-X-X.png,stimuli/m0_wW-L_O-X-X.png,2,8,56,17,,,,,,,,,506.6585496130865,513.328053992358,514.0668809199706,514.0668809199706,514.0668809199706,514.958503545844,514.958503545844,right,0.4851940297521651,507.7129885262111,S4,T-A,2023-01-26_13h03.44.396,knowing_that_K_ONLY,2022.2.5,60.01205175531569,
Does Anna know that the book is here?,Does Anna think that the book is here?,Is the book here?,late,33,per_5,per_K,1,0,1,no,X-B-O,O-B-O,none,X-B-O,M,R,M,stimuli/blue-M.png,stimuli/blue-R.png,stimuli/blue-M.png,mB-L,m0,stimuli/m0_w0_X-B-O.png,stimuli/mW-R_w0_X-B-O.png,stimuli/mB-L_w0_X-B-O.png,stimuli/mB-L_w0_O-B-O.png,stimuli/mB-L_w0_X-B-O.png,stimuli/mW-L_w0_X-B-O.png,stimuli/m0_wW-R_X-B-O.png,stimuli/m0_none_X-B-O.png,stimuli/m0_none_X-B-O.png,stimuli/m0_wW-L_X-B-O.png,2,9,57,4,,,,,,,,,515.4750624120934,522.1508426520741,522.8897058304865,522.8897058304865,522.8897058304865,523.7750285353977,523.7750285353977,left,0.5814883750863373,516.5288160908967,S4,T-A,2023-01-26_13h03.44.396,knowing_that_K_ONLY,2022.2.5,60.01205175531569,
Does Anna know that the book is here?,Does Anna think that the book is here?,Is the book here?,late,32,per_4,per_K,1,0,1,no,O-X-B,O-O-B,none,O-X-B,R,L,R,stimuli/blue-R.png,stimuli/blue-L.png,stimuli/blue-R.png,mB-M,m0,stimuli/m0_w0_O-X-B.png,stimuli/mW-R_w0_O-X-B.png,stimuli/mB-M_w0_O-X-B.png,stimuli/mB-M_w0_O-O-B.png,stimuli/mB-M_w0_O-X-B.png,stimuli/mW-L_w0_O-X-B.png,stimuli/m0_wW-R_O-X-B.png,stimuli/m0_none_O-X-B.png,stimuli/m0_none_O-X-B.png,stimuli/m0_wW-L_O-X-B.png,2,10,58,3,,,,,,,,,524.3749319096096,531.050512610469,531.7861777079524,531.7861777079524,531.7861777079524,532.6753022441408,532.6753022441408,left,0.5446313677821308,525.4338434521342,S4,T-A,2023-01-26_13h03.44.396,knowing_that_K_ONLY,2022.2.5,60.01205175531569,
Does Anna know that the book is here?,Does Anna think that the book is here?,Is the book here?,late,51,mem_11,mem_K,1,1,1,show,O-X-O,O-B-O,O-X-B,O-X-X,R,R,R,stimuli/blue-R.png,stimuli/blue-R.png,stimuli/blue-R.png,mB-L,m0,stimuli/m0_w0_O-X-O.png,stimuli/mW-R_w0_O-X-O.png,stimuli/mB-L_w0_O-B-O.png,stimuli/mB-L_w0_O-X-B.png,stimuli/mB-L_w0_O-X-X.png,stimuli/mW-L_w0_O-X-X.png,stimuli/m0_wW-R_O-X-X.png,stimuli/m0_none_O-X-X.png,stimuli/m0_none_O-X-X.png,stimuli/m0_wW-L_O-X-X.png,2,11,59,22,,,,,,,,,533.2418466422241,539.9147717393935,540.6534103559097,540.6534103559097,540.6534103559097,541.5418804548681,541.5418804548681,left,0.54933272942435,534.3036983403144,S4,T-A,2023-01-26_13h03.44.396,knowing_that_K_ONLY,2022.2.5,60.01205175531569,
Does Anna know that the book is here?,Does Anna think that the book is here?,Is the book here?,late,34,per_6,per_K,1,0,1,no,X-B-X,O-B-X,none,X-B-X,M,R,M,stimuli/blue-M.png,stimuli/blue-R.png,stimuli/blue-M.png,mB-L,m0,stimuli/m0_w0_X-B-X.png,stimuli/mW-R_w0_X-B-X.png,stimuli/mB-L_w0_X-B-X.png,stimuli/mB-L_w0_O-B-X.png,stimuli/mB-L_w0_X-B-X.png,stimuli/mW-L_w0_X-B-X.png,stimuli/m0_wW-R_X-B-X.png,stimuli/m0_none_X-B-X.png,stimuli/m0_none_X-B-X.png,stimuli/m0_wW-L_X-B-X.png,2,12,60,5,,,,,,,,,542.1083164217416,548.7852926136693,549.4995325906202,549.4995325906202,549.4995325906202,550.4084217732307,550.4084217732307,left,0.3317778994096443,543.1732096489286,S4,T-A,2023-01-26_13h03.44.396,knowing_that_K_ONLY,2022.2.5,60.01205175531569,
Does Anna know that the book is here?,Does Anna think that the book is here?,Is the book here?,early,45,mem_5,mem_K,0,1,0,switch,O-X-O,O-B-O,B-X-O,X-X-O,L,M,M,stimuli/blue-L.png,stimuli/blue-M.png,stimuli/blue-M.png,mB-R,m0,stimuli/m0_w0_O-X-O.png,stimuli/m0_wW-R_O-X-O.png,stimuli/m0_none_O-X-O.png,stimuli/mW-R_none_O-X-O.png,stimuli/mB-R_none_O-B-O.png,stimuli/mB-R_none_B-X-O.png,stimuli/mB-R_none_X-X-O.png,stimuli/mW-L_none_X-X-O.png,stimuli/m0_none_X-X-O.png,stimuli/m0_wW-L_X-X-O.png,2,13,61,16,,,,,,,,,550.7583127965918,557.4327892949805,558.1673832326196,558.1673832326196,558.1673832326196,559.0583132457687,559.0583132457687,right,0.36862560361623764,551.8112914164085,S4,T-A,2023-01-26_13h03.44.396,knowing_that_K_ONLY,2022.2.5,60.01205175531569,
Does Anna know that the book is here?,Does Anna think that the book is here?,Is the book here?,early,48,mem_8,mem_K,0,1,0,switch,X-O-O,B-O-O,X-B-O,X-X-O,M,L,L,stimuli/blue-M.png,stimuli/blue-L.png,stimuli/blue-L.png,mB-R,m0,stimuli/m0_w0_X-O-O.png,stimuli/m0_wW-R_X-O-O.png,stimuli/m0_none_X-O-O.png,stimuli/mW-R_none_X-O-O.png,stimuli/mB-R_none_B-O-O.png,stimuli/mB-R_none_X-B-O.png,stimuli/mB-R_none_X-X-O.png,stimuli/mW-L_none_X-X-O.png,stimuli/m0_none_X-X-O.png,stimuli/m0_wW-L_X-X-O.png,2,14,62,19,,,,,,,,,559.4585215108236,566.132990951417,566.8682688402478,566.8682688402478,566.8682688402478,567.7583355735987,567.7583355735987,right,0.5172271289629862,560.5140748920385,S4,T-A,2023-01-26_13h03.44.396,knowing_that_K_ONLY,2022.2.5,60.01205175531569,
Does Anna know that the book is here?,Does Anna think that the book is here?,Is the book here?,late,38,per_10,per_K,1,1,1,show,X-X-X,X-O-X,none,X-O-B,R,R,R,stimuli/blue-R.png,stimuli/blue-R.png,stimuli/blue-R.png,mB-R,m0,stimuli/m0_w0_X-X-X.png,stimuli/mW-R_w0_X-X-X.png,stimuli/mB-R_w0_X-X-X.png,stimuli/mB-R_w0_X-O-X.png,stimuli/mB-R_w0_X-O-B.png,stimuli/mW-L_w0_X-O-B.png,stimuli/m0_wW-R_X-O-B.png,stimuli/m0_none_X-O-B.png,stimuli/m0_none_X-O-B.png,stimuli/m0_wW-L_X-O-B.png,2,15,63,9,,,,,,,,,568.2916371261235,574.9657796688844,575.7074453785317,575.7074453785317,575.7074453785317,576.591907370137,576.591907370137,left,0.4192059033084661,569.3460612823255,S4,T-A,2023-01-26_13h03.44.396,knowing_that_K_ONLY,2022.2.5,60.01205175531569,
Does Anna know that the book is here?,Does Anna think that the book is here?,Is the book here?,early,49,mem_9,mem_K,0,1,0,switch,X-O-O,B-O-O,X-B-O,X-X-O,M,L,L,stimuli/blue-M.png,stimuli/blue-L.png,stimuli/blue-L.png,mB-R,m0,stimuli/m0_w0_X-O-O.png,stimuli/m0_wW-R_X-O-O.png,stimuli/m0_none_X-O-O.png,stimuli/mW-R_none_X-O-O.png,stimuli/mB-R_none_B-O-O.png,stimuli/mB-R_none_X-B-O.png,stimuli/mB-R_none_X-X-O.png,stimuli/mW-L_none_X-X-O.png,stimuli/m0_none_X-X-O.png,stimuli/m0_wW-L_X-X-O.png,2,16,64,20,,,,,,,,,577.0416732163867,583.7175814565271,584.4505543789128,584.4505543789128,584.4505543789128,585.3419902976602,585.3419902976602,right,0.34198070445563644,578.1042977279285,S4,T-A,2023-01-26_13h03.44.396,knowing_that_K_ONLY,2022.2.5,60.01205175531569,
Does Anna know that the book is here?,Does Anna think that the book is here?,Is the book here?,early,47,mem_7,mem_K,0,1,0,switch,X-O-O,B-O-O,X-O-B,X-O-X,R,L,L,stimuli/blue-R.png,stimuli/blue-L.png,stimuli/blue-L.png,mB-M,m0,stimuli/m0_w0_X-O-O.png,stimuli/m0_wW-R_X-O-O.png,stimuli/m0_none_X-O-O.png,stimuli/mW-R_none_X-O-O.png,stimuli/mB-M_none_B-O-O.png,stimuli/mB-M_none_X-O-B.png,stimuli/mB-M_none_X-O-X.png,stimuli/mW-L_none_X-O-X.png,stimuli/m0_none_X-O-X.png,stimuli/m0_wW-L_X-O-X.png,2,17,65,18,,,,,,,,,585.7084433953278,592.3816536859376,593.0977023477899,593.0977023477899,593.0977023477899,594.0086032833206,594.0086032833206,right,0.33909540611784905,586.7676308280788,S4,T-A,2023-01-26_13h03.44.396,knowing_that_K_ONLY,2022.2.5,60.01205175531569,
Does Anna know that the book is here?,Does Anna think that the book is here?,Is the book here?,early,37,per_9,per_K,1,0,1,switch,X-O-B,X-B-O,none,X-B-X,M,R,M,stimuli/blue-M.png,stimuli/blue-R.png,stimuli/blue-M.png,mB-R,m0,stimuli/m0_w0_X-O-B.png,stimuli/m0_wW-R_X-O-B.png,stimuli/m0_none_X-O-B.png,stimuli/mW-R_none_X-O-B.png,stimuli/mB-R_none_X-O-B.png,stimuli/mB-R_none_X-B-O.png,stimuli/mB-R_none_X-B-X.png,stimuli/mW-L_none_X-B-X.png,stimuli/m0_none_X-B-X.png,stimuli/m0_wW-L_X-B-X.png,2,18,66,8,,,,,,,,,594.3751272783848,601.0494302225998,601.7904232091969,601.7904232091969,601.7904232091969,602.6753336827969,602.6753336827969,left,0.31975036941003054,595.4282983797602,S4,T-A,2023-01-26_13h03.44.396,knowing_that_K_ONLY,2022.2.5,60.01205175531569,
Does Anna know that the book is here?,Does Anna think that the book is here?,Is the book here?,early,44,mem_4,mem_K,0,1,0,switch,O-X-O,O-B-O,O-X-B,O-X-X,R,M,M,stimuli/blue-R.png,stimuli/blue-M.png,stimuli/blue-M.png,mB-L,m0,stimuli/m0_w0_O-X-O.png,stimuli/m0_wW-R_O-X-O.png,stimuli/m0_none_O-X-O.png,stimuli/mW-R_none_O-X-O.png,stimuli/mB-L_none_O-B-O.png,stimuli/mB-L_none_O-X-B.png,stimuli/mB-L_none_O-X-X.png,stimuli/mW-L_none_O-X-X.png,stimuli/m0_none_O-X-X.png,stimuli/m0_wW-L_O-X-X.png,2,19,67,15,,,,,,,,,603.0252660897095,609.7001137565821,610.4362975918921,610.4362975918921,610.4362975918921,611.3252395914169,611.3252395914169,right,0.6950669214129448,604.0794971226715,S4,T-A,2023-01-26_13h03.44.396,knowing_that_K_ONLY,2022.2.5,60.01205175531569,
Does Anna know that the book is here?,Does Anna think that the book is here?,Is the book here?,late,39,per_11,per_K,1,1,1,show,X-X-O,X-B-O,none,X-B-O,M,M,M,stimuli/blue-M.png,stimuli/blue-M.png,stimuli/blue-M.png,mB-M,m0,stimuli/m0_w0_X-X-O.png,stimuli/mW-R_w0_X-X-O.png,stimuli/mB-M_w0_X-X-O.png,stimuli/mB-M_w0_X-B-O.png,stimuli/mB-M_w0_X-B-O.png,stimuli/mW-L_w0_X-B-O.png,stimuli/m0_wW-R_X-B-O.png,stimuli/m0_none_X-B-O.png,stimuli/m0_none_X-B-O.png,stimuli/m0_wW-L_X-B-O.png,2,20,68,10,,,,,,,,,612.041999472538,618.7171381074004,619.4530418820214,619.4530418820214,619.4530418820214,620.3419495556736,620.3419495556736,left,0.38180545635987073,613.1004853100749,S4,T-A,2023-01-26_13h03.44.396,knowing_that_K_ONLY,2022.2.5,60.01205175531569,
Does Anna know that the book is here?,Does Anna think that the book is here?,Is the book here?,late,50,mem_10,mem_K,1,1,1,show,O-O-X,O-O-B,O-B-X,O-X-X,M,M,M,stimuli/blue-M.png,stimuli/blue-M.png,stimuli/blue-M.png,mB-L,m0,stimuli/m0_w0_O-O-X.png,stimuli/mW-R_w0_O-O-X.png,stimuli/mB-L_w0_O-O-B.png,stimuli/mB-L_w0_O-B-X.png,stimuli/mB-L_w0_O-X-X.png,stimuli/mW-L_w0_O-X-X.png,stimuli/m0_wW-R_O-X-X.png,stimuli/m0_none_O-X-X.png,stimuli/m0_none_O-X-X.png,stimuli/m0_wW-L_O-X-X.png,2,21,69,21,,,,,,,,,620.7420638256008,627.4158714505611,628.1508667123271,628.1508667123271,628.1508667123271,629.0417717028176,629.0417717028176,left,0.401736278552562,621.8053546440788,S4,T-A,2023-01-26_13h03.44.396,knowing_that_K_ONLY,2022.2.5,60.01205175531569,
Does Anna know that the book is here?,Does Anna think that the book is here?,Is the book here?,early,31,per_3,per_K,1,0,1,no,O-B-X,O-B-O,none,O-B-X,M,R,M,stimuli/blue-M.png,stimuli/blue-R.png,stimuli/blue-M.png,mB-R,m0,stimuli/m0_w0_O-B-X.png,stimuli/m0_wW-R_O-B-X.png,stimuli/m0_none_O-B-X.png,stimuli/mW-R_none_O-B-X.png,stimuli/mB-R_none_O-B-X.png,stimuli/mB-R_none_O-B-O.png,stimuli/mB-R_none_O-B-X.png,stimuli/mW-L_none_O-B-X.png,stimuli/m0_none_O-B-X.png,stimuli/m0_wW-L_O-B-X.png,2,22,70,2,,,,,,,,,629.4750765274512,636.1488299367484,636.8894543212373,636.8894543212373,636.8894543212373,637.7753021799726,637.7753021799726,left,0.42795835982542485,630.5382483281428,S4,T-A,2023-01-26_13h03.44.396,knowing_that_K_ONLY,2022.2.5,60.01205175531569,
Does Anna know that the book is here?,Does Anna think that the book is here?,Is the book here?,early,30,per_2,per_K,1,0,1,no,X-X-B,O-X-B,none,X-X-B,R,L,R,stimuli/blue-R.png,stimuli/blue-L.png,stimuli/blue-R.png,mB-L,m0,stimuli/m0_w0_X-X-B.png,stimuli/m0_wW-R_X-X-B.png,stimuli/m0_none_X-X-B.png,stimuli/mW-R_none_X-X-B.png,stimuli/mB-L_none_X-X-B.png,stimuli/mB-L_none_O-X-B.png,stimuli/mB-L_none_X-X-B.png,stimuli/mW-L_none_X-X-B.png,stimuli/m0_none_X-X-B.png,stimuli/m0_wW-L_X-X-B.png,2,23,71,1,,,,,,,,,638.2250474948669,644.9051133362809,645.615452674916,645.615452674916,645.615452674916,646.5252051372081,646.5252051372081,left,0.4547556402394548,639.3379013480153,S4,T-A,2023-01-26_13h03.44.396,knowing_that_K_ONLY,2022.2.5,60.01205175531569,
