K_text,B_text,T_text,Anna_exit,trial_num,trial_code,cond,K_hit,B_hit,T_hit,book_move,start_shelf,mid_shelf,end_shelf,rectangle,rectangle_path,Todd_mid,Todd_final,frame_1,frame_2,frame_3,frame_4,frame_5,frame_6,frame_7,frame_8,frame_9,frame_10,trials.thisRepN,trials.thisTrialN,trials.thisN,trials.thisIndex,frames.thisRepN,frames.thisTrialN,frames.thisN,frames.thisIndex,sessionInst.started,startSession.started,startSession.keys,startSession.rt,crossText.started,movingImage.started,staticImage.started,promptText3.started,rectImage.started,respText.started,keyResp.started,keyResp.keys,keyResp.rt,crossText.stopped,subject,session,date,expName,psychopyVersion,frameRate,
,,,,,,,,,,,,,,,,,,,,,,,,,,,,,,,,,,,,33.57106226077303,33.57106226077303,left,8.391250948538072,,,,,,,,,,,S5,B-M,2023-01-27_13h23.56.052,knowing_that_K_ONLY,2022.2.5,59.582241433625285,
Does Anna know that the book is here?,Does Anna think that the book is here?,Is the book here?,early,19,no_1,no_K,0,0,0,no,X-X-X,O-X-X,X-X-X,L,stimuli/blue-L.png,mB-L,m0,stimuli/m0_w0_X-X-X.png,stimuli/m0_wW-R_X-X-X.png,stimuli/m0_none_X-X-X.png,stimuli/mW-R_none_X-X-X.png,stimuli/mB-L_none_X-X-X.png,stimuli/mB-L_none_O-X-X.png,stimuli/mB-L_none_X-X-X.png,stimuli/mW-L_none_X-X-X.png,stimuli/m0_none_X-X-X.png,stimuli/m0_wW-L_X-X-X.png,0,0,0,18,,,,,,,,,42.01668365858495,48.653738536988385,49.41267336974852,49.41267336974852,49.41267336974852,50.28144490765408,50.28144490765408,right,0.8258675348479301,,S5,B-M,2023-01-27_13h23.56.052,knowing_that_K_ONLY,2022.2.5,59.582241433625285,
Does Anna know that the book is here?,Does Anna think that the book is here?,Is the book here?,late,4,per_4,per_K,1,1,1,no,O-X-B,O-O-B,O-X-B,R,stimuli/blue-R.png,mB-M,m0,stimuli/m0_w0_O-X-B.png,stimuli/mW-R_w0_O-X-B.png,stimuli/mB-M_w0_O-X-B.png,stimuli/mB-M_w0_O-O-B.png,stimuli/mB-M_w0_O-X-B.png,stimuli/mW-L_w0_O-X-B.png,stimuli/m0_wW-R_O-X-B.png,stimuli/m0_none_O-X-B.png,stimuli/m0_none_O-X-B.png,stimuli/m0_wW-L_O-X-B.png,0,1,1,3,,,,,,,,,51.13151910924353,57.78252023784444,58.54791539290454,58.54791539290454,58.54791539290454,59.43145892675966,59.43145892675966,left,0.5947427562205121,52.19436080416199,S5,B-M,2023-01-27_13h23.56.052,knowing_that_K_ONLY,2022.2.5,59.582241433625285,
Does Anna know that the book is here?,Does Anna think that the book is here?,Is the book here?,early,22,no_4,no_K,0,0,0,no,O-X-X,O-O-X,O-X-X,M,stimuli/blue-M.png,mB-M,m0,stimuli/m0_w0_O-X-X.png,stimuli/m0_wW-R_O-X-X.png,stimuli/m0_none_O-X-X.png,stimuli/mW-R_none_O-X-X.png,stimuli/mB-M_none_O-X-X.png,stimuli/mB-M_none_O-O-X.png,stimuli/mB-M_none_O-X-X.png,stimuli/mW-L_none_O-X-X.png,stimuli/m0_none_O-X-X.png,stimuli/m0_wW-L_O-X-X.png,0,2,2,21,,,,,,,,,60.04808317264542,66.71959609678015,67.43720578402281,67.43720578402281,67.43720578402281,68.3479684535414,68.3479684535414,right,0.670842258958146,61.09759006695822,S5,B-M,2023-01-27_13h23.56.052,knowing_that_K_ONLY,2022.2.5,59.582241433625285,
Does Anna know that the book is here?,Does Anna think that the book is here?,Is the book here?,late,15,mem_6,mem_K,1,1,1,no,X-B-O,X-B-X,X-X-X,M,stimuli/blue-M.png,mB-R,m0,stimuli/m0_w0_X-B-O.png,stimuli/mW-R_w0_X-B-O.png,stimuli/mB-R_w0_X-B-O.png,stimuli/mB-R_w0_X-B-X.png,stimuli/mB-R_w0_X-X-X.png,stimuli/mW-L_w0_X-X-X.png,stimuli/m0_wW-R_X-X-X.png,stimuli/m0_none_X-X-X.png,stimuli/m0_none_X-X-X.png,stimuli/m0_wW-L_X-X-X.png,0,3,3,14,,,,,,,,,69.04823427065276,75.69890336855315,76.45847114478238,76.45847114478238,76.45847114478238,77.3485442942474,77.3485442942474,left,0.3499190660659224,70.10381139116362,S5,B-M,2023-01-27_13h23.56.052,knowing_that_K_ONLY,2022.2.5,59.582241433625285,
Does Anna know that the book is here?,Does Anna think that the book is here?,Is the book here?,early,21,no_3,no_K,0,0,0,no,X-X-O,X-O-O,X-X-O,M,stimuli/blue-M.png,mB-M,m0,stimuli/m0_w0_X-X-O.png,stimuli/m0_wW-R_X-X-O.png,stimuli/m0_none_X-X-O.png,stimuli/mW-R_none_X-X-O.png,stimuli/mB-M_none_X-X-O.png,stimuli/mB-M_none_X-O-O.png,stimuli/mB-M_none_X-X-O.png,stimuli/mW-L_none_X-X-O.png,stimuli/m0_none_X-X-O.png,stimuli/m0_wW-L_X-X-O.png,0,4,4,20,,,,,,,,,77.71486137167085,84.36142900865525,85.12392507086042,85.12392507086042,85.12392507086042,86.01525865355507,86.01525865355507,right,0.3879980103811249,78.76971732801758,S5,B-M,2023-01-27_13h23.56.052,knowing_that_K_ONLY,2022.2.5,59.582241433625285,
Does Anna know that the book is here?,Does Anna think that the book is here?,Is the book here?,early,8,per_8,per_K,1,1,1,switch,O-X-B,B-X-O,B-X-X,L,stimuli/blue-L.png,mB-L,m0,stimuli/m0_w0_O-X-B.png,stimuli/m0_wW-R_O-X-B.png,stimuli/m0_none_O-X-B.png,stimuli/mW-R_none_O-X-B.png,stimuli/mB-L_none_O-X-B.png,stimuli/mB-L_none_B-X-O.png,stimuli/mB-L_none_B-X-X.png,stimuli/mW-L_none_B-X-X.png,stimuli/m0_none_B-X-X.png,stimuli/m0_wW-L_B-X-X.png,0,5,5,7,,,,,,,,,86.43161772401072,93.08295216644183,93.84349069127347,93.84349069127347,93.84349069127347,94.7313361876877,94.7313361876877,left,0.5919245055411011,87.49482898344286,S5,B-M,2023-01-27_13h23.56.052,knowing_that_K_ONLY,2022.2.5,59.582241433625285,
Does Anna know that the book is here?,Does Anna think that the book is here?,Is the book here?,early,20,no_2,no_K,0,0,0,no,X-O-X,O-O-X,X-O-X,L,stimuli/blue-L.png,mB-L,m0,stimuli/m0_w0_X-O-X.png,stimuli/m0_wW-R_X-O-X.png,stimuli/m0_none_X-O-X.png,stimuli/mW-R_none_X-O-X.png,stimuli/mB-L_none_X-O-X.png,stimuli/mB-L_none_O-O-X.png,stimuli/mB-L_none_X-O-X.png,stimuli/mW-L_none_X-O-X.png,stimuli/m0_none_X-O-X.png,stimuli/m0_wW-L_X-O-X.png,0,6,6,19,,,,,,,,,95.34797037835233,101.99996022053529,102.73879388498608,102.73879388498608,102.73879388498608,103.64824350969866,103.64824350969866,right,0.5312953861430287,96.39661046420224,S5,B-M,2023-01-27_13h23.56.052,knowing_that_K_ONLY,2022.2.5,59.582241433625285,
Does Anna know that the book is here?,Does Anna think that the book is here?,Is the book here?,early,2,per_2,per_K,1,1,1,no,X-X-B,O-X-B,X-X-B,R,stimuli/blue-R.png,mB-L,m0,stimuli/m0_w0_X-X-B.png,stimuli/m0_wW-R_X-X-B.png,stimuli/m0_none_X-X-B.png,stimuli/mW-R_none_X-X-B.png,stimuli/mB-L_none_X-X-B.png,stimuli/mB-L_none_O-X-B.png,stimuli/mB-L_none_X-X-B.png,stimuli/mW-L_none_X-X-B.png,stimuli/m0_none_X-X-B.png,stimuli/m0_wW-L_X-X-B.png,0,7,7,1,,,,,,,,,104.19856235536281,110.87169437017292,111.58953599759843,111.58953599759843,111.58953599759843,112.49830423761159,112.49830423761159,left,0.48876498523168266,105.24915709125344,S5,B-M,2023-01-27_13h23.56.052,knowing_that_K_ONLY,2022.2.5,59.582241433625285,
Does Anna know that the book is here?,Does Anna think that the book is here?,Is the book here?,early,28,no_10,no_K,0,0,0,hide,O-B-O,O-B-O,X-O-X,L,stimuli/blue-L.png,mB-M,m0,stimuli/m0_w0_O-B-O.png,stimuli/m0_wW-R_O-B-O.png,stimuli/m0_none_O-B-O.png,stimuli/mW-R_none_O-B-O.png,stimuli/mB-M_none_O-B-O.png,stimuli/mB-M_none_O-B-O.png,stimuli/mB-M_none_X-O-X.png,stimuli/mW-L_none_X-O-X.png,stimuli/m0_none_X-O-X.png,stimuli/m0_wW-L_X-O-X.png,0,8,8,27,,,,,,,,,113.01480503869243,119.66442639543675,120.42807895084843,120.42807895084843,120.42807895084843,121.31511409988161,121.31511409988161,right,0.6557850694516674,114.06677505525295,S5,B-M,2023-01-27_13h23.56.052,knowing_that_K_ONLY,2022.2.5,59.582241433625285,
Does Anna know that the book is here?,Does Anna think that the book is here?,Is the book here?,early,26,no_8,no_K,0,0,0,hide,X-B-O,O-B-O,X-O-X,R,stimuli/blue-R.png,mB-L,m0,stimuli/m0_w0_X-B-O.png,stimuli/m0_wW-R_X-B-O.png,stimuli/m0_none_X-B-O.png,stimuli/mW-R_none_X-B-O.png,stimuli/mB-L_none_X-B-O.png,stimuli/mB-L_none_O-B-O.png,stimuli/mB-L_none_X-O-X.png,stimuli/mW-L_none_X-O-X.png,stimuli/m0_none_X-O-X.png,stimuli/m0_wW-L_X-O-X.png,0,9,9,25,,,,,,,,,121.99826574139297,128.67322633077856,129.40816320641898,129.40816320641898,129.40816320641898,130.29840092756785,130.29840092756785,right,0.60827196307946,123.05662422021851,S5,B-M,2023-01-27_13h23.56.052,knowing_that_K_ONLY,2022.2.5,59.582241433625285,
Does Anna know that the book is here?,Does Anna think that the book is here?,Is the book here?,late,5,per_5,per_K,1,1,1,no,X-B-O,O-B-O,X-B-O,M,stimuli/blue-M.png,mB-L,m0,stimuli/m0_w0_X-B-O.png,stimuli/mW-R_w0_X-B-O.png,stimuli/mB-L_w0_X-B-O.png,stimuli/mB-L_w0_O-B-O.png,stimuli/mB-L_w0_X-B-O.png,stimuli/mW-L_w0_X-B-O.png,stimuli/m0_wW-R_X-B-O.png,stimuli/m0_none_X-B-O.png,stimuli/m0_none_X-B-O.png,stimuli/m0_wW-L_X-B-O.png,0,10,10,4,,,,,,,,,130.93162734806538,137.60313963063527,138.34264569729567,138.34264569729567,138.34264569729567,139.2318610206712,139.2318610206712,left,0.5155369221465662,131.99042853456922,S5,B-M,2023-01-27_13h23.56.052,knowing_that_K_ONLY,2022.2.5,59.582241433625285,
Does Anna know that the book is here?,Does Anna think that the book is here?,Is the book here?,late,11,mem_2,mem_K,1,1,1,no,O-B-O,O-B-X,O-X-X,M,stimuli/blue-M.png,mB-L,m0,stimuli/m0_w0_O-B-O.png,stimuli/mW-R_w0_O-B-O.png,stimuli/mB-L_w0_O-B-O.png,stimuli/mB-L_w0_O-B-X.png,stimuli/mB-L_w0_O-X-X.png,stimuli/mW-L_w0_O-X-X.png,stimuli/m0_wW-R_O-X-X.png,stimuli/m0_none_O-X-X.png,stimuli/m0_none_O-X-X.png,stimuli/m0_wW-L_O-X-X.png,0,11,11,10,,,,,,,,,139.76525400183164,146.41607419785578,147.17602854117285,147.17602854117285,147.17602854117285,148.06512997963,148.06512997963,left,0.4901354538742453,140.82776783651207,S5,B-M,2023-01-27_13h23.56.052,knowing_that_K_ONLY,2022.2.5,59.582241433625285,
Does Anna know that the book is here?,Does Anna think that the book is here?,Is the book here?,early,23,no_5,no_K,0,0,0,no,X-O-X,X-O-O,X-O-X,R,stimuli/blue-R.png,mB-R,m0,stimuli/m0_w0_X-O-X.png,stimuli/m0_wW-R_X-O-X.png,stimuli/m0_none_X-O-X.png,stimuli/mW-R_none_X-O-X.png,stimuli/mB-R_none_X-O-X.png,stimuli/mB-R_none_X-O-O.png,stimuli/mB-R_none_X-O-X.png,stimuli/mW-L_none_X-O-X.png,stimuli/m0_none_X-O-X.png,stimuli/m0_wW-L_X-O-X.png,0,12,12,22,,,,,,,,,148.581653878442,155.25414781691507,155.9934819333721,155.9934819333721,155.9934819333721,156.8815757309785,156.8815757309785,right,0.6654444348532706,149.6327991115395,S5,B-M,2023-01-27_13h23.56.052,knowing_that_K_ONLY,2022.2.5,59.582241433625285,
Does Anna know that the book is here?,Does Anna think that the book is here?,Is the book here?,early,27,no_9,no_K,0,0,0,hide,X-X-B,O-O-B,X-X-O,L,stimuli/blue-L.png,mB-M,m0,stimuli/m0_w0_X-X-B.png,stimuli/m0_wW-R_X-X-B.png,stimuli/m0_none_X-X-B.png,stimuli/mW-R_none_X-X-B.png,stimuli/mB-M_none_X-X-B.png,stimuli/mB-M_none_O-O-B.png,stimuli/mB-M_none_X-X-O.png,stimuli/mW-L_none_X-X-O.png,stimuli/m0_none_X-X-O.png,stimuli/m0_wW-L_X-X-O.png,0,13,13,26,,,,,,,,,157.56507319759112,164.23913489817642,164.9761412711814,164.9761412711814,164.9761412711814,165.8649674609769,165.8649674609769,right,0.5382513483054936,158.61670572974253,S5,B-M,2023-01-27_13h23.56.052,knowing_that_K_ONLY,2022.2.5,59.582241433625285,
Does Anna know that the book is here?,Does Anna think that the book is here?,Is the book here?,late,17,mem_8,mem_K,1,1,1,switch,O-X-B,B-X-O,X-X-O,L,stimuli/blue-L.png,mB-M,m0,stimuli/m0_w0_O-X-B.png,stimuli/mW-R_w0_O-X-B.png,stimuli/mB-M_w0_O-X-B.png,stimuli/mB-M_w0_B-X-O.png,stimuli/mB-M_w0_X-X-O.png,stimuli/mW-L_w0_X-X-O.png,stimuli/m0_wW-R_X-X-O.png,stimuli/m0_none_X-X-O.png,stimuli/m0_none_X-X-O.png,stimuli/m0_wW-L_X-X-O.png,0,14,14,16,,,,,,,,,166.4315866061952,173.10343958099838,173.84357217513025,173.84357217513025,173.84357217513025,174.7310936609283,174.7310936609283,left,0.35963136388454586,167.48675021226518,S5,B-M,2023-01-27_13h23.56.052,knowing_that_K_ONLY,2022.2.5,59.582241433625285,
Does Anna know that the book is here?,Does Anna think that the book is here?,Is the book here?,early,9,per_9,per_K,1,1,1,switch,X-O-B,X-B-O,X-B-X,M,stimuli/blue-M.png,mB-R,m0,stimuli/m0_w0_X-O-B.png,stimuli/m0_wW-R_X-O-B.png,stimuli/m0_none_X-O-B.png,stimuli/mW-R_none_X-O-B.png,stimuli/mB-R_none_X-O-B.png,stimuli/mB-R_none_X-B-O.png,stimuli/mB-R_none_X-B-X.png,stimuli/mW-L_none_X-B-X.png,stimuli/m0_none_X-B-X.png,stimuli/m0_wW-L_X-B-X.png,0,15,15,8,,,,,,,,,175.11484347085934,181.78718053677585,182.50536831025966,182.50536831025966,182.50536831025966,183.41494882234838,183.41494882234838,left,0.45966658811084926,176.17647830641363,S5,B-M,2023-01-27_13h23.56.052,knowing_that_K_ONLY,2022.2.5,59.582241433625285,
Does Anna know that the book is here?,Does Anna think that the book is here?,Is the book here?,late,10,mem_1,mem_K,1,1,1,no,O-X-B,X-X-B,X-X-X,R,stimuli/blue-R.png,mB-M,m0,stimuli/m0_w0_O-X-B.png,stimuli/mW-R_w0_O-X-B.png,stimuli/mB-M_w0_O-X-B.png,stimuli/mB-M_w0_X-X-B.png,stimuli/mB-M_w0_X-X-X.png,stimuli/mW-L_w0_X-X-X.png,stimuli/m0_wW-R_X-X-X.png,stimuli/m0_none_X-X-X.png,stimuli/m0_none_X-X-X.png,stimuli/m0_wW-L_X-X-X.png,0,16,16,9,,,,,,,,,183.89833991089836,190.57123036135454,191.30838430358563,191.30838430358563,191.30838430358563,192.19838334759697,192.19838334759697,left,0.4601169949164614,184.9577069930965,S5,B-M,2023-01-27_13h23.56.052,knowing_that_K_ONLY,2022.2.5,59.582241433625285,
Does Anna know that the book is here?,Does Anna think that the book is here?,Is the book here?,late,14,mem_5,mem_K,1,1,1,no,O-B-X,O-B-X,O-X-X,M,stimuli/blue-M.png,mB-L,m0,stimuli/m0_w0_O-B-X.png,stimuli/mW-R_w0_O-B-X.png,stimuli/mB-L_w0_O-B-X.png,stimuli/mB-L_w0_O-B-X.png,stimuli/mB-L_w0_O-X-X.png,stimuli/mW-L_w0_O-X-X.png,stimuli/m0_wW-R_O-X-X.png,stimuli/m0_none_O-X-X.png,stimuli/m0_none_O-X-X.png,stimuli/m0_wW-L_O-X-X.png,0,17,17,13,,,,,,,,,192.68170129309874,199.35525740880985,200.0927090558689,200.0927090558689,200.0927090558689,200.98177969723474,200.98177969723474,left,0.5336693251738325,193.7350286252331,S5,B-M,2023-01-27_13h23.56.052,knowing_that_K_ONLY,2022.2.5,59.582241433625285,
Does Anna know that the book is here?,Does Anna think that the book is here?,Is the book here?,late,6,per_6,per_K,1,1,1,no,X-B-X,O-B-X,X-B-X,M,stimuli/blue-M.png,mB-L,m0,stimuli/m0_w0_X-B-X.png,stimuli/mW-R_w0_X-B-X.png,stimuli/mB-L_w0_X-B-X.png,stimuli/mB-L_w0_O-B-X.png,stimuli/mB-L_w0_X-B-X.png,stimuli/mW-L_w0_X-B-X.png,stimuli/m0_wW-R_X-B-X.png,stimuli/m0_none_X-B-X.png,stimuli/m0_none_X-B-X.png,stimuli/m0_wW-L_X-B-X.png,0,18,18,5,,,,,,,,,201.53184927930124,208.20310748624615,208.91982020949945,208.91982020949945,208.91982020949945,209.83174995880108,209.83174995880108,left,0.4522579734912142,202.5842074669199,S5,B-M,2023-01-27_13h23.56.052,knowing_that_K_ONLY,2022.2.5,59.582241433625285,
Does Anna know that the book is here?,Does Anna think that the book is here?,Is the book here?,early,1,per_1,per_K,1,1,1,no,B-X-X,B-O-X,B-X-X,L,stimuli/blue-L.png,mB-M,m0,stimuli/m0_w0_B-X-X.png,stimuli/m0_wW-R_B-X-X.png,stimuli/m0_none_B-X-X.png,stimuli/mW-R_none_B-X-X.png,stimuli/mB-M_none_B-X-X.png,stimuli/mB-M_none_B-O-X.png,stimuli/mB-M_none_B-X-X.png,stimuli/mW-L_none_B-X-X.png,stimuli/m0_none_B-X-X.png,stimuli/m0_wW-L_B-X-X.png,0,19,19,0,,,,,,,,,210.3150980597129,216.98705048346892,217.7279170738766,217.7279170738766,217.7279170738766,218.61509465926792,218.61509465926792,left,0.379957735654898,211.36942597513553,S5,B-M,2023-01-27_13h23.56.052,knowing_that_K_ONLY,2022.2.5,59.582241433625285,
Does Anna know that the book is here?,Does Anna think that the book is here?,Is the book here?,late,13,mem_4,mem_K,1,1,1,no,B-X-O,B-X-O,X-X-O,L,stimuli/blue-L.png,mB-M,m0,stimuli/m0_w0_B-X-O.png,stimuli/mW-R_w0_B-X-O.png,stimuli/mB-M_w0_B-X-O.png,stimuli/mB-M_w0_B-X-O.png,stimuli/mB-M_w0_X-X-O.png,stimuli/mW-L_w0_X-X-O.png,stimuli/m0_wW-R_X-X-O.png,stimuli/m0_none_X-X-O.png,stimuli/m0_none_X-X-O.png,stimuli/m0_wW-L_X-X-O.png,0,20,20,12,,,,,,,,,219.01514893909916,225.66577601188328,226.40574243024457,226.40574243024457,226.40574243024457,227.3148144702427,227.3148144702427,left,0.3770156552782282,220.07957892736886,S5,B-M,2023-01-27_13h23.56.052,knowing_that_K_ONLY,2022.2.5,59.582241433625285,
Does Anna know that the book is here?,Does Anna think that the book is here?,Is the book here?,early,25,no_7,no_K,0,0,0,hide,B-X-X,B-O-O,O-X-X,M,stimuli/blue-M.png,mB-L,m0,stimuli/m0_w0_B-X-X.png,stimuli/m0_wW-R_B-X-X.png,stimuli/m0_none_B-X-X.png,stimuli/mW-R_none_B-X-X.png,stimuli/mB-L_none_B-X-X.png,stimuli/mB-L_none_B-O-O.png,stimuli/mB-L_none_O-X-X.png,stimuli/mW-L_none_O-X-X.png,stimuli/m0_none_O-X-X.png,stimuli/m0_wW-L_O-X-X.png,0,21,21,24,,,,,,,,,227.71479464473668,234.3853355370229,235.10041184641887,235.10041184641887,235.10041184641887,236.01513514458202,236.01513514458202,right,0.3959327412303537,228.7542536817491,S5,B-M,2023-01-27_13h23.56.052,knowing_that_K_ONLY,2022.2.5,59.582241433625285,
Does Anna know that the book is here?,Does Anna think that the book is here?,Is the book here?,late,16,mem_7,mem_K,1,1,1,switch,B-X-O,O-X-B,O-X-X,R,stimuli/blue-R.png,mB-M,m0,stimuli/m0_w0_B-X-O.png,stimuli/mW-R_w0_B-X-O.png,stimuli/mB-M_w0_B-X-O.png,stimuli/mB-M_w0_O-X-B.png,stimuli/mB-M_w0_O-X-X.png,stimuli/mW-L_w0_O-X-X.png,stimuli/m0_wW-R_O-X-X.png,stimuli/m0_none_O-X-X.png,stimuli/m0_none_O-X-X.png,stimuli/m0_wW-L_O-X-X.png,0,22,22,15,,,,,,,,,236.4320254640188,243.08361654856708,243.82089784939308,243.82089784939308,243.82089784939308,244.73184658458922,244.73184658458922,left,0.38275994604919106,237.48644577059895,S5,B-M,2023-01-27_13h23.56.052,knowing_that_K_ONLY,2022.2.5,59.582241433625285,
Does Anna know that the book is here?,Does Anna think that the book is here?,Is the book here?,early,24,no_6,no_K,0,0,0,no,X-X-X,X-X-O,X-X-X,R,stimuli/blue-R.png,mB-R,m0,stimuli/m0_w0_X-X-X.png,stimuli/m0_wW-R_X-X-X.png,stimuli/m0_none_X-X-X.png,stimuli/mW-R_none_X-X-X.png,stimuli/mB-R_none_X-X-X.png,stimuli/mB-R_none_X-X-O.png,stimuli/mB-R_none_X-X-X.png,stimuli/mW-L_none_X-X-X.png,stimuli/m0_none_X-X-X.png,stimuli/m0_wW-L_X-X-X.png,0,23,23,23,,,,,,,,,245.1316355606541,251.80197081854567,252.54006920359097,252.54006920359097,252.54006920359097,253.4318894437747,253.4318894437747,right,0.4755347663303837,246.1841535079293,S5,B-M,2023-01-27_13h23.56.052,knowing_that_K_ONLY,2022.2.5,59.582241433625285,
Does Anna know that the book is here?,Does Anna think that the book is here?,Is the book here?,early,7,per_7,per_K,1,1,1,switch,B-X-O,O-X-B,X-X-B,R,stimuli/blue-R.png,mB-R,m0,stimuli/m0_w0_B-X-O.png,stimuli/m0_wW-R_B-X-O.png,stimuli/m0_none_B-X-O.png,stimuli/mW-R_none_B-X-O.png,stimuli/mB-R_none_B-X-O.png,stimuli/mB-R_none_O-X-B.png,stimuli/mB-R_none_X-X-B.png,stimuli/mW-L_none_X-X-B.png,stimuli/m0_none_X-X-B.png,stimuli/m0_wW-L_X-X-B.png,0,24,24,6,,,,,,,,,253.93187789490912,260.60430735198315,261.3412020857213,261.3412020857213,261.3412020857213,262.2321019433439,262.2321019433439,left,0.5555227170698345,254.9864743220387,S5,B-M,2023-01-27_13h23.56.052,knowing_that_K_ONLY,2022.2.5,59.582241433625285,
Does Anna know that the book is here?,Does Anna think that the book is here?,Is the book here?,late,12,mem_3,mem_K,1,1,1,no,X-O-B,X-O-B,X-O-X,R,stimuli/blue-R.png,mB-M,m0,stimuli/m0_w0_X-O-B.png,stimuli/mW-R_w0_X-O-B.png,stimuli/mB-M_w0_X-O-B.png,stimuli/mB-M_w0_X-O-B.png,stimuli/mB-M_w0_X-O-X.png,stimuli/mW-L_w0_X-O-X.png,stimuli/m0_wW-R_X-O-X.png,stimuli/m0_none_X-O-X.png,stimuli/m0_none_X-O-X.png,stimuli/m0_wW-L_X-O-X.png,0,25,25,11,,,,,,,,,262.8151737691369,269.4868810996413,270.22703935799655,270.22703935799655,270.22703935799655,271.1152342084097,271.1152342084097,left,0.3513585071777925,263.8769949909765,S5,B-M,2023-01-27_13h23.56.052,knowing_that_K_ONLY,2022.2.5,59.582241433625285,
Does Anna know that the book is here?,Does Anna think that the book is here?,Is the book here?,late,18,mem_9,mem_K,1,1,1,switch,X-O-B,X-B-O,X-X-O,M,stimuli/blue-M.png,mB-L,m0,stimuli/m0_w0_X-O-B.png,stimuli/mW-R_w0_X-O-B.png,stimuli/mB-L_w0_X-O-B.png,stimuli/mB-L_w0_X-B-O.png,stimuli/mB-L_w0_X-X-O.png,stimuli/mW-L_w0_X-X-O.png,stimuli/m0_wW-R_X-X-O.png,stimuli/m0_none_X-X-O.png,stimuli/m0_none_X-X-O.png,stimuli/m0_wW-L_X-X-O.png,0,26,26,17,,,,,,,,,271.49868663435336,278.1489425385371,278.9090592080029,278.9090592080029,278.9090592080029,279.7985654992517,279.7985654992517,left,0.4921362994937226,272.5619533925783,S5,B-M,2023-01-27_13h23.56.052,knowing_that_K_ONLY,2022.2.5,59.582241433625285,
Does Anna know that the book is here?,Does Anna think that the book is here?,Is the book here?,early,3,per_3,per_K,1,1,1,no,O-B-X,O-B-O,O-B-X,M,stimuli/blue-M.png,mB-R,m0,stimuli/m0_w0_O-B-X.png,stimuli/m0_wW-R_O-B-X.png,stimuli/m0_none_O-B-X.png,stimuli/mW-R_none_O-B-X.png,stimuli/mB-R_none_O-B-X.png,stimuli/mB-R_none_O-B-O.png,stimuli/mB-R_none_O-B-X.png,stimuli/mW-L_none_O-B-X.png,stimuli/m0_none_O-B-X.png,stimuli/m0_wW-L_O-B-X.png,0,27,27,2,,,,,,,,,280.3150191423483,286.9874800380785,287.70560493425,287.70560493425,287.70560493425,288.615230679512,288.615230679512,left,0.5961103375302628,281.36951259186026,S5,B-M,2023-01-27_13h23.56.052,knowing_that_K_ONLY,2022.2.5,59.582241433625285,
Does Anna know that the book is here?,Does Anna think that the book is here?,Is the book here?,late,18,mem_9,mem_K,1,1,1,switch,X-O-B,X-B-O,X-X-O,M,stimuli/blue-M.png,mB-L,m0,stimuli/m0_w0_X-O-B.png,stimuli/mW-R_w0_X-O-B.png,stimuli/mB-L_w0_X-O-B.png,stimuli/mB-L_w0_X-B-O.png,stimuli/mB-L_w0_X-X-O.png,stimuli/mW-L_w0_X-X-O.png,stimuli/m0_wW-R_X-X-O.png,stimuli/m0_none_X-X-O.png,stimuli/m0_none_X-X-O.png,stimuli/m0_wW-L_X-X-O.png,1,0,28,17,,,,,,,,,289.2318709655665,295.9028183147311,296.6406286191195,296.6406286191195,296.6406286191195,297.5320796155138,297.5320796155138,left,0.391773215145804,290.2869242156157,S5,B-M,2023-01-27_13h23.56.052,knowing_that_K_ONLY,2022.2.5,59.582241433625285,
Does Anna know that the book is here?,Does Anna think that the book is here?,Is the book here?,early,26,no_8,no_K,0,0,0,hide,X-B-O,O-B-O,X-O-X,R,stimuli/blue-R.png,mB-L,m0,stimuli/m0_w0_X-B-O.png,stimuli/m0_wW-R_X-B-O.png,stimuli/m0_none_X-B-O.png,stimuli/mW-R_none_X-B-O.png,stimuli/mB-L_none_X-B-O.png,stimuli/mB-L_none_O-B-O.png,stimuli/mB-L_none_X-O-X.png,stimuli/mW-L_none_X-O-X.png,stimuli/m0_none_X-O-X.png,stimuli/m0_wW-L_X-O-X.png,1,1,29,25,,,,,,,,,297.94853685155977,304.600475365296,305.36337146826554,305.36337146826554,305.36337146826554,306.2487570504891,306.2487570504891,right,0.4674912835471332,299.0062883719802,S5,B-M,2023-01-27_13h23.56.052,knowing_that_K_ONLY,2022.2.5,59.582241433625285,
Does Anna know that the book is here?,Does Anna think that the book is here?,Is the book here?,late,4,per_4,per_K,1,1,1,no,O-X-B,O-O-B,O-X-B,R,stimuli/blue-R.png,mB-M,m0,stimuli/m0_w0_O-X-B.png,stimuli/mW-R_w0_O-X-B.png,stimuli/mB-M_w0_O-X-B.png,stimuli/mB-M_w0_O-O-B.png,stimuli/mB-M_w0_O-X-B.png,stimuli/mW-L_w0_O-X-B.png,stimuli/m0_wW-R_O-X-B.png,stimuli/m0_none_O-X-B.png,stimuli/m0_none_O-X-B.png,stimuli/m0_wW-L_O-X-B.png,1,2,30,3,,,,,,,,,306.7485603984678,313.41738916758914,314.1594254041556,314.1594254041556,314.1594254041556,315.0488806877984,315.0488806877984,left,0.4342243777355179,307.81266188505106,S5,B-M,2023-01-27_13h23.56.052,knowing_that_K_ONLY,2022.2.5,59.582241433625285,
Does Anna know that the book is here?,Does Anna think that the book is here?,Is the book here?,early,2,per_2,per_K,1,1,1,no,X-X-B,O-X-B,X-X-B,R,stimuli/blue-R.png,mB-L,m0,stimuli/m0_w0_X-X-B.png,stimuli/m0_wW-R_X-X-B.png,stimuli/m0_none_X-X-B.png,stimuli/mW-R_none_X-X-B.png,stimuli/mB-L_none_X-X-B.png,stimuli/mB-L_none_O-X-B.png,stimuli/mB-L_none_X-X-B.png,stimuli/mW-L_none_X-X-B.png,stimuli/m0_none_X-X-B.png,stimuli/m0_wW-L_X-X-B.png,1,3,31,1,,,,,,,,,315.5153378917603,322.1920471759513,322.92878086690325,322.92878086690325,322.92878086690325,323.8153826115886,323.8153826115886,left,0.3473237733123824,316.57546688010916,S5,B-M,2023-01-27_13h23.56.052,knowing_that_K_ONLY,2022.2.5,59.582241433625285,
Does Anna know that the book is here?,Does Anna think that the book is here?,Is the book here?,early,8,per_8,per_K,1,1,1,switch,O-X-B,B-X-O,B-X-X,L,stimuli/blue-L.png,mB-L,m0,stimuli/m0_w0_O-X-B.png,stimuli/m0_wW-R_O-X-B.png,stimuli/m0_none_O-X-B.png,stimuli/mW-R_none_O-X-B.png,stimuli/mB-L_none_O-X-B.png,stimuli/mB-L_none_B-X-O.png,stimuli/mB-L_none_B-X-X.png,stimuli/mW-L_none_B-X-X.png,stimuli/m0_none_B-X-X.png,stimuli/m0_wW-L_B-X-X.png,1,4,32,7,,,,,,,,,324.1821465670364,330.8593075412791,331.59269943181425,331.59269943181425,331.59269943181425,332.48226378823165,332.48226378823165,left,0.3933117842534557,325.2372229148168,S5,B-M,2023-01-27_13h23.56.052,knowing_that_K_ONLY,2022.2.5,59.582241433625285,
Does Anna know that the book is here?,Does Anna think that the book is here?,Is the book here?,late,12,mem_3,mem_K,1,1,1,no,X-O-B,X-O-B,X-O-X,R,stimuli/blue-R.png,mB-M,m0,stimuli/m0_w0_X-O-B.png,stimuli/mW-R_w0_X-O-B.png,stimuli/mB-M_w0_X-O-B.png,stimuli/mB-M_w0_X-O-B.png,stimuli/mB-M_w0_X-O-X.png,stimuli/mW-L_w0_X-O-X.png,stimuli/m0_wW-R_X-O-X.png,stimuli/m0_none_X-O-X.png,stimuli/m0_none_X-O-X.png,stimuli/m0_wW-L_X-O-X.png,1,5,33,11,,,,,,,,,332.8986283123959,339.57018807379063,340.28786769590806,340.28786769590806,340.28786769590806,341.1986823355546,341.1986823355546,left,0.5485619428800419,333.95154052611906,S5,B-M,2023-01-27_13h23.56.052,knowing_that_K_ONLY,2022.2.5,59.582241433625285,
Does Anna know that the book is here?,Does Anna think that the book is here?,Is the book here?,late,6,per_6,per_K,1,1,1,no,X-B-X,O-B-X,X-B-X,M,stimuli/blue-M.png,mB-L,m0,stimuli/m0_w0_X-B-X.png,stimuli/mW-R_w0_X-B-X.png,stimuli/mB-L_w0_X-B-X.png,stimuli/mB-L_w0_O-B-X.png,stimuli/mB-L_w0_X-B-X.png,stimuli/mW-L_w0_X-B-X.png,stimuli/m0_wW-R_X-B-X.png,stimuli/m0_none_X-B-X.png,stimuli/m0_none_X-B-X.png,stimuli/m0_wW-L_X-B-X.png,1,6,34,5,,,,,,,,,341.76526138035115,348.43867570138536,349.17718310968485,349.17718310968485,349.17718310968485,350.0651752128033,350.0651752128033,left,0.36938376200851053,342.8185502162669,S5,B-M,2023-01-27_13h23.56.052,knowing_that_K_ONLY,2022.2.5,59.582241433625285,
Does Anna know that the book is here?,Does Anna think that the book is here?,Is the book here?,early,21,no_3,no_K,0,0,0,no,X-X-O,X-O-O,X-X-O,M,stimuli/blue-M.png,mB-M,m0,stimuli/m0_w0_X-X-O.png,stimuli/m0_wW-R_X-X-O.png,stimuli/m0_none_X-X-O.png,stimuli/mW-R_none_X-X-O.png,stimuli/mB-M_none_X-X-O.png,stimuli/mB-M_none_X-O-O.png,stimuli/mB-M_none_X-X-O.png,stimuli/mW-L_none_X-X-O.png,stimuli/m0_none_X-X-O.png,stimuli/m0_wW-L_X-X-O.png,1,7,35,20,,,,,,,,,350.46517399372533,357.1394952236442,357.87687501090113,357.87687501090113,357.87687501090113,358.7655138520058,358.7655138520058,right,0.2696978918975219,351.52439029875677,S5,B-M,2023-01-27_13h23.56.052,knowing_that_K_ONLY,2022.2.5,59.582241433625285,
Does Anna know that the book is here?,Does Anna think that the book is here?,Is the book here?,early,23,no_5,no_K,0,0,0,no,X-O-X,X-O-O,X-O-X,R,stimuli/blue-R.png,mB-R,m0,stimuli/m0_w0_X-O-X.png,stimuli/m0_wW-R_X-O-X.png,stimuli/m0_none_X-O-X.png,stimuli/mW-R_none_X-O-X.png,stimuli/mB-R_none_X-O-X.png,stimuli/mB-R_none_X-O-O.png,stimuli/mB-R_none_X-O-X.png,stimuli/mW-L_none_X-O-X.png,stimuli/m0_none_X-O-X.png,stimuli/m0_wW-L_X-O-X.png,1,8,36,22,,,,,,,,,359.0655014689546,365.7155405107187,366.4791366048157,366.4791366048157,366.4791366048157,367.3654900484253,367.3654900484253,right,0.3660198263823986,360.1219999345485,S5,B-M,2023-01-27_13h23.56.052,knowing_that_K_ONLY,2022.2.5,59.582241433625285,
Does Anna know that the book is here?,Does Anna think that the book is here?,Is the book here?,early,7,per_7,per_K,1,1,1,switch,B-X-O,O-X-B,X-X-B,R,stimuli/blue-R.png,mB-R,m0,stimuli/m0_w0_B-X-O.png,stimuli/m0_wW-R_B-X-O.png,stimuli/m0_none_B-X-O.png,stimuli/mW-R_none_B-X-O.png,stimuli/mB-R_none_B-X-O.png,stimuli/mB-R_none_O-X-B.png,stimuli/mB-R_none_X-X-B.png,stimuli/mW-L_none_X-X-B.png,stimuli/m0_none_X-X-B.png,stimuli/m0_wW-L_X-X-B.png,1,9,37,6,,,,,,,,,367.74870860925876,374.4017054506112,375.13779785716906,375.13779785716906,375.13779785716906,376.0489204672631,376.0489204672631,left,0.37770506006199867,368.79313399095554,S5,B-M,2023-01-27_13h23.56.052,knowing_that_K_ONLY,2022.2.5,59.582241433625285,
Does Anna know that the book is here?,Does Anna think that the book is here?,Is the book here?,early,3,per_3,per_K,1,1,1,no,O-B-X,O-B-O,O-B-X,M,stimuli/blue-M.png,mB-R,m0,stimuli/m0_w0_O-B-X.png,stimuli/m0_wW-R_O-B-X.png,stimuli/m0_none_O-B-X.png,stimuli/mW-R_none_O-B-X.png,stimuli/mB-R_none_O-B-X.png,stimuli/mB-R_none_O-B-O.png,stimuli/mB-R_none_O-B-X.png,stimuli/mW-L_none_O-B-X.png,stimuli/m0_none_O-B-X.png,stimuli/m0_wW-L_O-B-X.png,1,10,38,2,,,,,,,,,376.4485868967604,383.12141703628004,383.83851857227273,383.83851857227273,383.83851857227273,384.7487519176211,384.7487519176211,left,0.829916705028154,377.50191968260333,S5,B-M,2023-01-27_13h23.56.052,knowing_that_K_ONLY,2022.2.5,59.582241433625285,
Does Anna know that the book is here?,Does Anna think that the book is here?,Is the book here?,early,28,no_10,no_K,0,0,0,hide,O-B-O,O-B-O,X-O-X,L,stimuli/blue-L.png,mB-M,m0,stimuli/m0_w0_O-B-O.png,stimuli/m0_wW-R_O-B-O.png,stimuli/m0_none_O-B-O.png,stimuli/mW-R_none_O-B-O.png,stimuli/mB-M_none_O-B-O.png,stimuli/mB-M_none_O-B-O.png,stimuli/mB-M_none_X-O-X.png,stimuli/mW-L_none_X-O-X.png,stimuli/m0_none_X-O-X.png,stimuli/m0_wW-L_X-O-X.png,1,11,39,27,,,,,,,,,385.5985880837543,392.24969956837595,393.0094617510913,393.0094617510913,393.0094617510913,393.8989985185908,393.8989985185908,right,0.3612032965756953,386.6539890837157,S5,B-M,2023-01-27_13h23.56.052,knowing_that_K_ONLY,2022.2.5,59.582241433625285,
Does Anna know that the book is here?,Does Anna think that the book is here?,Is the book here?,early,25,no_7,no_K,0,0,0,hide,B-X-X,B-O-O,O-X-X,M,stimuli/blue-M.png,mB-L,m0,stimuli/m0_w0_B-X-X.png,stimuli/m0_wW-R_B-X-X.png,stimuli/m0_none_B-X-X.png,stimuli/mW-R_none_B-X-X.png,stimuli/mB-L_none_B-X-X.png,stimuli/mB-L_none_B-O-O.png,stimuli/mB-L_none_O-X-X.png,stimuli/mW-L_none_O-X-X.png,stimuli/m0_none_O-X-X.png,stimuli/m0_wW-L_O-X-X.png,1,12,40,24,,,,,,,,,394.282215475454,400.9343843254028,401.67300401453394,401.67300401453394,401.67300401453394,402.58202568860725,402.58202568860725,right,0.5886462241178378,395.3466178748058,S5,B-M,2023-01-27_13h23.56.052,knowing_that_K_ONLY,2022.2.5,59.582241433625285,
Does Anna know that the book is here?,Does Anna think that the book is here?,Is the book here?,early,9,per_9,per_K,1,1,1,switch,X-O-B,X-B-O,X-B-X,M,stimuli/blue-M.png,mB-R,m0,stimuli/m0_w0_X-O-B.png,stimuli/m0_wW-R_X-O-B.png,stimuli/m0_none_X-O-B.png,stimuli/mW-R_none_X-O-B.png,stimuli/mB-R_none_X-O-B.png,stimuli/mB-R_none_X-B-O.png,stimuli/mB-R_none_X-B-X.png,stimuli/mW-L_none_X-B-X.png,stimuli/m0_none_X-B-X.png,stimuli/m0_wW-L_X-B-X.png,1,13,41,8,,,,,,,,,403.19864319765475,409.870409235009,410.6081322811078,410.6081322811078,410.6081322811078,411.49894552200567,411.49894552200567,left,0.6167206194950268,404.25797178351786,S5,B-M,2023-01-27_13h23.56.052,knowing_that_K_ONLY,2022.2.5,59.582241433625285,
Does Anna know that the book is here?,Does Anna think that the book is here?,Is the book here?,late,15,mem_6,mem_K,1,1,1,no,X-B-O,X-B-X,X-X-X,M,stimuli/blue-M.png,mB-R,m0,stimuli/m0_w0_X-B-O.png,stimuli/mW-R_w0_X-B-O.png,stimuli/mB-R_w0_X-B-O.png,stimuli/mB-R_w0_X-B-X.png,stimuli/mB-R_w0_X-X-X.png,stimuli/mW-L_w0_X-X-X.png,stimuli/m0_wW-R_X-X-X.png,stimuli/m0_none_X-X-X.png,stimuli/m0_none_X-X-X.png,stimuli/m0_wW-L_X-X-X.png,1,14,42,14,,,,,,,,,412.1320445839083,418.803104214021,419.52046527923085,419.52046527923085,419.52046527923085,420.43213132885285,420.43213132885285,left,0.45188872970175,413.1884862674633,S5,B-M,2023-01-27_13h23.56.052,knowing_that_K_ONLY,2022.2.5,59.582241433625285,
Does Anna know that the book is here?,Does Anna think that the book is here?,Is the book here?,early,27,no_9,no_K,0,0,0,hide,X-X-B,O-O-B,X-X-O,L,stimuli/blue-L.png,mB-M,m0,stimuli/m0_w0_X-X-B.png,stimuli/m0_wW-R_X-X-B.png,stimuli/m0_none_X-X-B.png,stimuli/mW-R_none_X-X-B.png,stimuli/mB-M_none_X-X-B.png,stimuli/mB-M_none_O-O-B.png,stimuli/mB-M_none_X-X-O.png,stimuli/mW-L_none_X-X-O.png,stimuli/m0_none_X-X-O.png,stimuli/m0_wW-L_X-X-O.png,1,15,43,26,,,,,,,,,420.9156796106836,427.58747516188305,428.32504005217925,428.32504005217925,428.32504005217925,429.2149819934275,429.2149819934275,right,0.8925842040916905,421.96874805516563,S5,B-M,2023-01-27_13h23.56.052,knowing_that_K_ONLY,2022.2.5,59.582241433625285,
Does Anna know that the book is here?,Does Anna think that the book is here?,Is the book here?,late,13,mem_4,mem_K,1,1,1,no,B-X-O,B-X-O,X-X-O,L,stimuli/blue-L.png,mB-M,m0,stimuli/m0_w0_B-X-O.png,stimuli/mW-R_w0_B-X-O.png,stimuli/mB-M_w0_B-X-O.png,stimuli/mB-M_w0_B-X-O.png,stimuli/mB-M_w0_X-X-O.png,stimuli/mW-L_w0_X-X-O.png,stimuli/m0_wW-R_X-X-O.png,stimuli/m0_none_X-X-O.png,stimuli/m0_none_X-X-O.png,stimuli/m0_wW-L_X-X-O.png,1,16,44,12,,,,,,,,,430.13195379672106,436.7824066737667,437.54214479622897,437.54214479622897,437.54214479622897,438.43217527889647,438.43217527889647,left,0.3723223137203604,431.1796350036748,S5,B-M,2023-01-27_13h23.56.052,knowing_that_K_ONLY,2022.2.5,59.582241433625285,
Does Anna know that the book is here?,Does Anna think that the book is here?,Is the book here?,late,10,mem_1,mem_K,1,1,1,no,O-X-B,X-X-B,X-X-X,R,stimuli/blue-R.png,mB-M,m0,stimuli/m0_w0_O-X-B.png,stimuli/mW-R_w0_O-X-B.png,stimuli/mB-M_w0_O-X-B.png,stimuli/mB-M_w0_X-X-B.png,stimuli/mB-M_w0_X-X-X.png,stimuli/mW-L_w0_X-X-X.png,stimuli/m0_wW-R_X-X-X.png,stimuli/m0_none_X-X-X.png,stimuli/m0_none_X-X-X.png,stimuli/m0_wW-L_X-X-X.png,1,17,45,9,,,,,,,,,438.83190330246,445.50222829473205,446.2411739192903,446.2411739192903,446.2411739192903,447.1317802425474,447.1317802425474,left,0.5917220792034641,439.891277442337,S5,B-M,2023-01-27_13h23.56.052,knowing_that_K_ONLY,2022.2.5,59.582241433625285,
Does Anna know that the book is here?,Does Anna think that the book is here?,Is the book here?,late,16,mem_7,mem_K,1,1,1,switch,B-X-O,O-X-B,O-X-X,R,stimuli/blue-R.png,mB-M,m0,stimuli/m0_w0_B-X-O.png,stimuli/mW-R_w0_B-X-O.png,stimuli/mB-M_w0_B-X-O.png,stimuli/mB-M_w0_O-X-B.png,stimuli/mB-M_w0_O-X-X.png,stimuli/mW-L_w0_O-X-X.png,stimuli/m0_wW-R_O-X-X.png,stimuli/m0_none_O-X-X.png,stimuli/m0_none_O-X-X.png,stimuli/m0_wW-L_O-X-X.png,1,18,46,15,,,,,,,,,447.74848950107116,454.42006722744554,455.15999322466087,455.15999322466087,455.15999322466087,456.0488271137001,456.0488271137001,left,0.45872567407786846,448.78892570280004,S5,B-M,2023-01-27_13h23.56.052,knowing_that_K_ONLY,2022.2.5,59.582241433625285,
Does Anna know that the book is here?,Does Anna think that the book is here?,Is the book here?,late,11,mem_2,mem_K,1,1,1,no,O-B-O,O-B-X,O-X-X,M,stimuli/blue-M.png,mB-L,m0,stimuli/m0_w0_O-B-O.png,stimuli/mW-R_w0_O-B-O.png,stimuli/mB-L_w0_O-B-O.png,stimuli/mB-L_w0_O-B-X.png,stimuli/mB-L_w0_O-X-X.png,stimuli/mW-L_w0_O-X-X.png,stimuli/m0_wW-R_O-X-X.png,stimuli/m0_none_O-X-X.png,stimuli/m0_none_O-X-X.png,stimuli/m0_wW-L_O-X-X.png,1,19,47,10,,,,,,,,,456.5321116957348,463.20321142626926,463.92371154460125,463.92371154460125,463.92371154460125,464.83237488218583,464.83237488218583,left,0.39451383147388697,457.58501813502517,S5,B-M,2023-01-27_13h23.56.052,knowing_that_K_ONLY,2022.2.5,59.582241433625285,
Does Anna know that the book is here?,Does Anna think that the book is here?,Is the book here?,early,24,no_6,no_K,0,0,0,no,X-X-X,X-X-O,X-X-X,R,stimuli/blue-R.png,mB-R,m0,stimuli/m0_w0_X-X-X.png,stimuli/m0_wW-R_X-X-X.png,stimuli/m0_none_X-X-X.png,stimuli/mW-R_none_X-X-X.png,stimuli/mB-R_none_X-X-X.png,stimuli/mB-R_none_X-X-O.png,stimuli/mB-R_none_X-X-X.png,stimuli/mW-L_none_X-X-X.png,stimuli/m0_none_X-X-X.png,stimuli/m0_wW-L_X-X-X.png,1,20,48,23,,,,,,,,,465.2487570504891,471.90033209486865,472.6369124421617,472.6369124421617,472.6369124421617,473.5490564876236,473.5490564876236,right,0.8544555351836607,466.30098499229643,S5,B-M,2023-01-27_13h23.56.052,knowing_that_K_ONLY,2022.2.5,59.582241433625285,
Does Anna know that the book is here?,Does Anna think that the book is here?,Is the book here?,early,20,no_2,no_K,0,0,0,no,X-O-X,O-O-X,X-O-X,L,stimuli/blue-L.png,mB-L,m0,stimuli/m0_w0_X-O-X.png,stimuli/m0_wW-R_X-O-X.png,stimuli/m0_none_X-O-X.png,stimuli/mW-R_none_X-O-X.png,stimuli/mB-L_none_X-O-X.png,stimuli/mB-L_none_O-O-X.png,stimuli/mB-L_none_X-O-X.png,stimuli/mW-L_none_X-O-X.png,stimuli/m0_none_X-O-X.png,stimuli/m0_wW-L_X-O-X.png,1,21,49,19,,,,,,,,,474.4320370130008,481.08366434811614,481.8216263920767,481.8216263920767,481.8216263920767,482.7321843896061,482.7321843896061,right,0.8066739172209054,475.4873796268366,S5,B-M,2023-01-27_13h23.56.052,knowing_that_K_ONLY,2022.2.5,59.582241433625285,
Does Anna know that the book is here?,Does Anna think that the book is here?,Is the book here?,early,22,no_4,no_K,0,0,0,no,O-X-X,O-O-X,O-X-X,M,stimuli/blue-M.png,mB-M,m0,stimuli/m0_w0_O-X-X.png,stimuli/m0_wW-R_O-X-X.png,stimuli/m0_none_O-X-X.png,stimuli/mW-R_none_O-X-X.png,stimuli/mB-M_none_O-X-X.png,stimuli/mB-M_none_O-O-X.png,stimuli/mB-M_none_O-X-X.png,stimuli/mW-L_none_O-X-X.png,stimuli/m0_none_O-X-X.png,stimuli/m0_wW-L_O-X-X.png,1,22,50,21,,,,,,,,,483.56550018582493,490.2180527156452,490.95437802479137,490.95437802479137,490.95437802479137,491.86529949167743,491.86529949167743,right,0.6345915683778003,484.62762649089564,S5,B-M,2023-01-27_13h23.56.052,knowing_that_K_ONLY,2022.2.5,59.582241433625285,
Does Anna know that the book is here?,Does Anna think that the book is here?,Is the book here?,late,5,per_5,per_K,1,1,1,no,X-B-O,O-B-O,X-B-O,M,stimuli/blue-M.png,mB-L,m0,stimuli/m0_w0_X-B-O.png,stimuli/mW-R_w0_X-B-O.png,stimuli/mB-L_w0_X-B-O.png,stimuli/mB-L_w0_O-B-O.png,stimuli/mB-L_w0_X-B-O.png,stimuli/mW-L_w0_X-B-O.png,stimuli/m0_wW-R_X-B-O.png,stimuli/m0_none_X-B-O.png,stimuli/m0_none_X-B-O.png,stimuli/m0_wW-L_X-B-O.png,1,23,51,4,,,,,,,,,492.5320902019739,499.183272263268,499.94393910910003,499.94393910910003,499.94393910910003,500.83224624034483,500.83224624034483,left,0.6029254674213007,493.5901147254044,S5,B-M,2023-01-27_13h23.56.052,knowing_that_K_ONLY,2022.2.5,59.582241433625285,
Does Anna know that the book is here?,Does Anna think that the book is here?,Is the book here?,early,1,per_1,per_K,1,1,1,no,B-X-X,B-O-X,B-X-X,L,stimuli/blue-L.png,mB-M,m0,stimuli/m0_w0_B-X-X.png,stimuli/m0_wW-R_B-X-X.png,stimuli/m0_none_B-X-X.png,stimuli/mW-R_none_B-X-X.png,stimuli/mB-M_none_B-X-X.png,stimuli/mB-M_none_B-O-X.png,stimuli/mB-M_none_B-X-X.png,stimuli/mW-L_none_B-X-X.png,stimuli/m0_none_B-X-X.png,stimuli/m0_wW-L_B-X-X.png,1,24,52,0,,,,,,,,,501.4655448414851,508.1383230109932,508.8790673756739,508.8790673756739,508.8790673756739,509.76568419812247,509.76568419812247,left,0.5426912559196353,502.51737947936635,S5,B-M,2023-01-27_13h23.56.052,knowing_that_K_ONLY,2022.2.5,59.582241433625285,
Does Anna know that the book is here?,Does Anna think that the book is here?,Is the book here?,late,17,mem_8,mem_K,1,1,1,switch,O-X-B,B-X-O,X-X-O,L,stimuli/blue-L.png,mB-M,m0,stimuli/m0_w0_O-X-B.png,stimuli/mW-R_w0_O-X-B.png,stimuli/mB-M_w0_O-X-B.png,stimuli/mB-M_w0_B-X-O.png,stimuli/mB-M_w0_X-X-O.png,stimuli/mW-L_w0_X-X-O.png,stimuli/m0_wW-R_X-X-O.png,stimuli/m0_none_X-X-O.png,stimuli/m0_none_X-X-O.png,stimuli/m0_wW-L_X-X-O.png,1,25,53,16,,,,,,,,,510.3323309322586,517.0061821864219,517.7219963415992,517.7219963415992,517.7219963415992,518.6321584688267,518.6321584688267,left,0.01881905342452228,511.3873848238727,S5,B-M,2023-01-27_13h23.56.052,knowing_that_K_ONLY,2022.2.5,59.582241433625285,
Does Anna know that the book is here?,Does Anna think that the book is here?,Is the book here?,late,14,mem_5,mem_K,1,1,1,no,O-B-X,O-B-X,O-X-X,M,stimuli/blue-M.png,mB-L,m0,stimuli/m0_w0_O-B-X.png,stimuli/mW-R_w0_O-B-X.png,stimuli/mB-L_w0_O-B-X.png,stimuli/mB-L_w0_O-B-X.png,stimuli/mB-L_w0_O-X-X.png,stimuli/mW-L_w0_O-X-X.png,stimuli/m0_wW-R_O-X-X.png,stimuli/m0_none_O-X-X.png,stimuli/m0_none_O-X-X.png,stimuli/m0_wW-L_O-X-X.png,1,26,54,13,,,,,,,,,518.6821433589794,525.3553263813956,526.0952446793672,526.0952446793672,526.0952446793672,526.9825791371986,526.9825791371986,left,0.37302262568846345,519.7380409614416,S5,B-M,2023-01-27_13h23.56.052,knowing_that_K_ONLY,2022.2.5,59.582241433625285,
Does Anna know that the book is here?,Does Anna think that the book is here?,Is the book here?,early,19,no_1,no_K,0,0,0,no,X-X-X,O-X-X,X-X-X,L,stimuli/blue-L.png,mB-L,m0,stimuli/m0_w0_X-X-X.png,stimuli/m0_wW-R_X-X-X.png,stimuli/m0_none_X-X-X.png,stimuli/mW-R_none_X-X-X.png,stimuli/mB-L_none_X-X-X.png,stimuli/mB-L_none_O-X-X.png,stimuli/mB-L_none_X-X-X.png,stimuli/mW-L_none_X-X-X.png,stimuli/m0_none_X-X-X.png,stimuli/m0_wW-L_X-X-X.png,1,27,55,18,,,,,,,,,527.382266418892,534.0312891580397,534.790816513123,534.790816513123,534.790816513123,535.6821629279293,535.6821629279293,right,0.48153762402944267,528.4430931527168,S5,B-M,2023-01-27_13h23.56.052,knowing_that_K_ONLY,2022.2.5,59.582241433625285,
Does Anna know that the book is here?,Does Anna think that the book is here?,Is the book here?,early,28,no_10,no_K,0,0,0,hide,O-B-O,O-B-O,X-O-X,L,stimuli/blue-L.png,mB-M,m0,stimuli/m0_w0_O-B-O.png,stimuli/m0_wW-R_O-B-O.png,stimuli/m0_none_O-B-O.png,stimuli/mW-R_none_O-B-O.png,stimuli/mB-M_none_O-B-O.png,stimuli/mB-M_none_O-B-O.png,stimuli/mB-M_none_X-O-X.png,stimuli/mW-L_none_X-O-X.png,stimuli/m0_none_X-O-X.png,stimuli/m0_wW-L_X-O-X.png,2,0,56,27,,,,,,,,,536.1823194796452,542.8552798649762,543.5709288069047,543.5709288069047,543.5709288069047,544.482386014075,544.482386014075,right,0.5533476757118478,537.2430814113468,S5,B-M,2023-01-27_13h23.56.052,knowing_that_K_ONLY,2022.2.5,59.582241433625285,
Does Anna know that the book is here?,Does Anna think that the book is here?,Is the book here?,early,26,no_8,no_K,0,0,0,hide,X-B-O,O-B-O,X-O-X,R,stimuli/blue-R.png,mB-L,m0,stimuli/m0_w0_X-B-O.png,stimuli/m0_wW-R_X-B-O.png,stimuli/m0_none_X-B-O.png,stimuli/mW-R_none_X-B-O.png,stimuli/mB-L_none_X-B-O.png,stimuli/mB-L_none_O-B-O.png,stimuli/mB-L_none_X-O-X.png,stimuli/mW-L_none_X-O-X.png,stimuli/m0_none_X-O-X.png,stimuli/m0_wW-L_X-O-X.png,2,1,57,25,,,,,,,,,545.0658097602427,551.7167611644836,552.4564099883428,552.4564099883428,552.4564099883428,553.3653026997345,553.3653026997345,right,0.8223515388090163,546.1181698726723,S5,B-M,2023-01-27_13h23.56.052,knowing_that_K_ONLY,2022.2.5,59.582241433625285,
Does Anna know that the book is here?,Does Anna think that the book is here?,Is the book here?,late,5,per_5,per_K,1,1,1,no,X-B-O,O-B-O,X-B-O,M,stimuli/blue-M.png,mB-L,m0,stimuli/m0_w0_X-B-O.png,stimuli/mW-R_w0_X-B-O.png,stimuli/mB-L_w0_X-B-O.png,stimuli/mB-L_w0_O-B-O.png,stimuli/mB-L_w0_X-B-O.png,stimuli/mW-L_w0_X-B-O.png,stimuli/m0_wW-R_X-B-O.png,stimuli/m0_none_X-B-O.png,stimuli/m0_none_X-B-O.png,stimuli/m0_wW-L_X-B-O.png,2,2,58,4,,,,,,,,,554.2155414731242,560.8667270630831,561.6280643864302,561.6280643864302,561.6280643864302,562.5154424733482,562.5154424733482,left,0.40815756493248045,555.2676491138991,S5,B-M,2023-01-27_13h23.56.052,knowing_that_K_ONLY,2022.2.5,59.582241433625285,
Does Anna know that the book is here?,Does Anna think that the book is here?,Is the book here?,early,27,no_9,no_K,0,0,0,hide,X-X-B,O-O-B,X-X-O,L,stimuli/blue-L.png,mB-M,m0,stimuli/m0_w0_X-X-B.png,stimuli/m0_wW-R_X-X-B.png,stimuli/m0_none_X-X-B.png,stimuli/mW-R_none_X-X-B.png,stimuli/mB-M_none_X-X-B.png,stimuli/mB-M_none_O-O-B.png,stimuli/mB-M_none_X-X-O.png,stimuli/mW-L_none_X-X-O.png,stimuli/m0_none_X-X-O.png,stimuli/m0_wW-L_X-X-O.png,2,3,59,26,,,,,,,,,562.9488249323331,569.6000108431326,570.3386087177787,570.3386087177787,570.3386087177787,571.2488879378652,571.2488879378652,right,0.08225006249267608,564.0044553061016,S5,B-M,2023-01-27_13h23.56.052,knowing_that_K_ONLY,2022.2.5,59.582241433625285,
Does Anna know that the book is here?,Does Anna think that the book is here?,Is the book here?,early,2,per_2,per_K,1,1,1,no,X-X-B,O-X-B,X-X-B,R,stimuli/blue-R.png,mB-L,m0,stimuli/m0_w0_X-X-B.png,stimuli/m0_wW-R_X-X-B.png,stimuli/m0_none_X-X-B.png,stimuli/mW-R_none_X-X-B.png,stimuli/mB-L_none_X-X-B.png,stimuli/mB-L_none_O-X-B.png,stimuli/mB-L_none_X-X-B.png,stimuli/mW-L_none_X-X-B.png,stimuli/m0_none_X-X-B.png,stimuli/m0_wW-L_X-X-B.png,2,4,60,1,,,,,,,,,571.349023573217,578.0007615853101,578.7376896826318,578.7376896826318,578.7376896826318,579.6491484937724,579.6491484937724,left,0.29793846304528415,572.4093103964115,S5,B-M,2023-01-27_13h23.56.052,knowing_that_K_ONLY,2022.2.5,59.582241433625285,
Does Anna know that the book is here?,Does Anna think that the book is here?,Is the book here?,early,24,no_6,no_K,0,0,0,no,X-X-X,X-X-O,X-X-X,R,stimuli/blue-R.png,mB-R,m0,stimuli/m0_w0_X-X-X.png,stimuli/m0_wW-R_X-X-X.png,stimuli/m0_none_X-X-X.png,stimuli/mW-R_none_X-X-X.png,stimuli/mB-R_none_X-X-X.png,stimuli/mB-R_none_X-X-O.png,stimuli/mB-R_none_X-X-X.png,stimuli/mW-L_none_X-X-X.png,stimuli/m0_none_X-X-X.png,stimuli/m0_wW-L_X-X-X.png,2,5,61,23,,,,,,,,,579.9654967210954,586.6156814071583,587.3768759733066,587.3768759733066,587.3768759733066,588.2656899725553,588.2656899725553,left,0.46692217979580164,581.0234044723911,S5,B-M,2023-01-27_13h23.56.052,knowing_that_K_ONLY,2022.2.5,59.582241433625285,
Does Anna know that the book is here?,Does Anna think that the book is here?,Is the book here?,early,8,per_8,per_K,1,1,1,switch,O-X-B,B-X-O,B-X-X,L,stimuli/blue-L.png,mB-L,m0,stimuli/m0_w0_O-X-B.png,stimuli/m0_wW-R_O-X-B.png,stimuli/m0_none_O-X-B.png,stimuli/mW-R_none_O-X-B.png,stimuli/mB-L_none_O-X-B.png,stimuli/mB-L_none_B-X-O.png,stimuli/mB-L_none_B-X-X.png,stimuli/mW-L_none_B-X-X.png,stimuli/m0_none_B-X-X.png,stimuli/m0_wW-L_B-X-X.png,2,6,62,7,,,,,,,,,588.749011126114,595.4224825500278,596.1430538864806,596.1430538864806,596.1430538864806,597.0490160664776,597.0490160664776,left,0.6666836951626465,589.8038471927866,S5,B-M,2023-01-27_13h23.56.052,knowing_that_K_ONLY,2022.2.5,59.582241433625285,
Does Anna know that the book is here?,Does Anna think that the book is here?,Is the book here?,late,16,mem_7,mem_K,1,1,1,switch,B-X-O,O-X-B,O-X-X,R,stimuli/blue-R.png,mB-M,m0,stimuli/m0_w0_B-X-O.png,stimuli/mW-R_w0_B-X-O.png,stimuli/mB-M_w0_B-X-O.png,stimuli/mB-M_w0_O-X-B.png,stimuli/mB-M_w0_O-X-X.png,stimuli/mW-L_w0_O-X-X.png,stimuli/m0_wW-R_O-X-X.png,stimuli/m0_none_O-X-X.png,stimuli/m0_none_O-X-X.png,stimuli/m0_wW-L_O-X-X.png,2,7,63,15,,,,,,,,,597.7326877289452,604.4056750616292,605.1432409144472,605.1432409144472,605.1432409144472,606.0323718666332,606.0323718666332,left,0.40346069436054677,598.7866582702845,S5,B-M,2023-01-27_13h23.56.052,knowing_that_K_ONLY,2022.2.5,59.582241433625285,
Does Anna know that the book is here?,Does Anna think that the book is here?,Is the book here?,late,10,mem_1,mem_K,1,1,1,no,O-X-B,X-X-B,X-X-X,R,stimuli/blue-R.png,mB-M,m0,stimuli/m0_w0_O-X-B.png,stimuli/mW-R_w0_O-X-B.png,stimuli/mB-M_w0_O-X-B.png,stimuli/mB-M_w0_X-X-B.png,stimuli/mB-M_w0_X-X-X.png,stimuli/mW-L_w0_X-X-X.png,stimuli/m0_wW-R_X-X-X.png,stimuli/m0_none_X-X-X.png,stimuli/m0_none_X-X-X.png,stimuli/m0_wW-L_X-X-X.png,2,8,64,9,,,,,,,,,606.4660106467782,613.1372736657504,613.8535237917677,613.8535237917677,613.8535237917677,614.7660082087386,614.7660082087386,left,0.31730018148664385,607.5221546256216,S5,B-M,2023-01-27_13h23.56.052,knowing_that_K_ONLY,2022.2.5,59.582241433625285,
Does Anna know that the book is here?,Does Anna think that the book is here?,Is the book here?,late,17,mem_8,mem_K,1,1,1,switch,O-X-B,B-X-O,X-X-O,L,stimuli/blue-L.png,mB-M,m0,stimuli/m0_w0_O-X-B.png,stimuli/mW-R_w0_O-X-B.png,stimuli/mB-M_w0_O-X-B.png,stimuli/mB-M_w0_B-X-O.png,stimuli/mB-M_w0_X-X-O.png,stimuli/mW-L_w0_X-X-O.png,stimuli/m0_wW-R_X-X-O.png,stimuli/m0_none_X-X-O.png,stimuli/m0_none_X-X-O.png,stimuli/m0_wW-L_X-X-O.png,2,9,65,16,,,,,,,,,615.1159803951159,621.7885163587052,622.5271665242035,622.5271665242035,622.5271665242035,623.4157396007795,623.4157396007795,left,0.4920082992175594,616.1764827976003,S5,B-M,2023-01-27_13h23.56.052,knowing_that_K_ONLY,2022.2.5,59.582241433625285,
Does Anna know that the book is here?,Does Anna think that the book is here?,Is the book here?,late,18,mem_9,mem_K,1,1,1,switch,X-O-B,X-B-O,X-X-O,M,stimuli/blue-M.png,mB-L,m0,stimuli/m0_w0_X-O-B.png,stimuli/mW-R_w0_X-O-B.png,stimuli/mB-L_w0_X-O-B.png,stimuli/mB-L_w0_X-B-O.png,stimuli/mB-L_w0_X-X-O.png,stimuli/mW-L_w0_X-X-O.png,stimuli/m0_wW-R_X-X-O.png,stimuli/m0_none_X-X-O.png,stimuli/m0_none_X-X-O.png,stimuli/m0_wW-L_X-X-O.png,2,10,66,17,,,,,,,,,623.9324248632183,630.5843155774055,631.3231960789999,631.3231960789999,631.3231960789999,632.2324153674999,632.2324153674999,left,0.3961864961311221,624.994094987167,S5,B-M,2023-01-27_13h23.56.052,knowing_that_K_ONLY,2022.2.5,59.582241433625285,
Does Anna know that the book is here?,Does Anna think that the book is here?,Is the book here?,early,9,per_9,per_K,1,1,1,switch,X-O-B,X-B-O,X-B-X,M,stimuli/blue-M.png,mB-R,m0,stimuli/m0_w0_X-O-B.png,stimuli/m0_wW-R_X-O-B.png,stimuli/m0_none_X-O-B.png,stimuli/mW-R_none_X-O-B.png,stimuli/mB-R_none_X-O-B.png,stimuli/mB-R_none_X-B-O.png,stimuli/mB-R_none_X-B-X.png,stimuli/mW-L_none_X-B-X.png,stimuli/m0_none_X-B-X.png,stimuli/m0_wW-L_X-B-X.png,2,11,67,8,,,,,,,,,632.6492206742987,639.3245011039544,640.0372528778389,640.0372528778389,640.0372528778389,640.9490530228941,640.9490530228941,left,0.5828303943853825,633.7033134414814,S5,B-M,2023-01-27_13h23.56.052,knowing_that_K_ONLY,2022.2.5,59.582241433625285,
Does Anna know that the book is here?,Does Anna think that the book is here?,Is the book here?,early,7,per_7,per_K,1,1,1,switch,B-X-O,O-X-B,X-X-B,R,stimuli/blue-R.png,mB-R,m0,stimuli/m0_w0_B-X-O.png,stimuli/m0_wW-R_B-X-O.png,stimuli/m0_none_B-X-O.png,stimuli/mW-R_none_B-X-O.png,stimuli/mB-R_none_B-X-O.png,stimuli/mB-R_none_O-X-B.png,stimuli/mB-R_none_X-X-B.png,stimuli/mW-L_none_X-X-B.png,stimuli/m0_none_X-X-B.png,stimuli/m0_wW-L_X-X-B.png,2,12,68,6,,,,,,,,,641.5489589635981,648.2017325264169,648.9641862426652,648.9641862426652,648.9641862426652,649.8493174284231,649.8493174284231,left,0.33007133181672543,642.6009966694983,S5,B-M,2023-01-27_13h23.56.052,knowing_that_K_ONLY,2022.2.5,59.582241433625285,
Does Anna know that the book is here?,Does Anna think that the book is here?,Is the book here?,early,25,no_7,no_K,0,0,0,hide,B-X-X,B-O-O,O-X-X,M,stimuli/blue-M.png,mB-L,m0,stimuli/m0_w0_B-X-X.png,stimuli/m0_wW-R_B-X-X.png,stimuli/m0_none_B-X-X.png,stimuli/mW-R_none_B-X-X.png,stimuli/mB-L_none_B-X-X.png,stimuli/mB-L_none_B-O-O.png,stimuli/mB-L_none_O-X-X.png,stimuli/mW-L_none_O-X-X.png,stimuli/m0_none_O-X-X.png,stimuli/m0_wW-L_O-X-X.png,2,13,69,24,,,,,,,,,650.1992896148004,656.8714633922791,657.6084829182364,657.6084829182364,657.6084829182364,658.498941993108,658.498941993108,right,0.5137837361544371,651.2552901948802,S5,B-M,2023-01-27_13h23.56.052,knowing_that_K_ONLY,2022.2.5,59.582241433625285,
Does Anna know that the book is here?,Does Anna think that the book is here?,Is the book here?,late,11,mem_2,mem_K,1,1,1,no,O-B-O,O-B-X,O-X-X,M,stimuli/blue-M.png,mB-L,m0,stimuli/m0_w0_O-B-O.png,stimuli/mW-R_w0_O-B-O.png,stimuli/mB-L_w0_O-B-O.png,stimuli/mB-L_w0_O-B-X.png,stimuli/mB-L_w0_O-X-X.png,stimuli/mW-L_w0_O-X-X.png,stimuli/m0_wW-R_O-X-X.png,stimuli/m0_none_O-X-X.png,stimuli/m0_none_O-X-X.png,stimuli/m0_wW-L_O-X-X.png,2,14,70,10,,,,,,,,,659.032533551217,665.7039807108231,666.4440302171279,666.4440302171279,666.4440302171279,667.332827534643,667.332827534643,right,0.37500037357676774,660.0923305088654,S5,B-M,2023-01-27_13h23.56.052,knowing_that_K_ONLY,2022.2.5,59.582241433625285,
Does Anna know that the book is here?,Does Anna think that the book is here?,Is the book here?,early,22,no_4,no_K,0,0,0,no,O-X-X,O-O-X,O-X-X,M,stimuli/blue-M.png,mB-M,m0,stimuli/m0_w0_O-X-X.png,stimuli/m0_wW-R_O-X-X.png,stimuli/m0_none_O-X-X.png,stimuli/mW-R_none_O-X-X.png,stimuli/mB-M_none_O-X-X.png,stimuli/mB-M_none_O-O-X.png,stimuli/mB-M_none_O-X-X.png,stimuli/mW-L_none_O-X-X.png,stimuli/m0_none_O-X-X.png,stimuli/m0_wW-L_O-X-X.png,2,15,71,21,,,,,,,,,667.7324647711357,674.4039946978446,675.141629523132,675.141629523132,675.141629523132,676.0323407488177,676.0323407488177,right,0.5240702705923468,668.7939529998694,S5,B-M,2023-01-27_13h23.56.052,knowing_that_K_ONLY,2022.2.5,59.582241433625285,
Does Anna know that the book is here?,Does Anna think that the book is here?,Is the book here?,early,3,per_3,per_K,1,1,1,no,O-B-X,O-B-O,O-B-X,M,stimuli/blue-M.png,mB-R,m0,stimuli/m0_w0_O-B-X.png,stimuli/m0_wW-R_O-B-X.png,stimuli/m0_none_O-B-X.png,stimuli/mW-R_none_O-B-X.png,stimuli/mB-R_none_O-B-X.png,stimuli/mB-R_none_O-B-O.png,stimuli/mB-R_none_O-B-X.png,stimuli/mW-L_none_O-B-X.png,stimuli/m0_none_O-B-X.png,stimuli/m0_wW-L_O-B-X.png,2,16,72,2,,,,,,,,,676.5825351231033,683.2554303855868,683.9715586064849,683.9715586064849,683.9715586064849,684.882256153156,684.882256153156,left,0.31392245122697204,677.635441241553,S5,B-M,2023-01-27_13h23.56.052,knowing_that_K_ONLY,2022.2.5,59.582241433625285,
Does Anna know that the book is here?,Does Anna think that the book is here?,Is the book here?,late,14,mem_5,mem_K,1,1,1,no,O-B-X,O-B-X,O-X-X,M,stimuli/blue-M.png,mB-L,m0,stimuli/m0_w0_O-B-X.png,stimuli/mW-R_w0_O-B-X.png,stimuli/mB-L_w0_O-B-X.png,stimuli/mB-L_w0_O-B-X.png,stimuli/mB-L_w0_O-X-X.png,stimuli/mW-L_w0_O-X-X.png,stimuli/m0_wW-R_O-X-X.png,stimuli/m0_none_O-X-X.png,stimuli/m0_none_O-X-X.png,stimuli/m0_wW-L_O-X-X.png,2,17,73,13,,,,,,,,,685.2160024663899,691.8875837214291,692.6266413062112,692.6266413062112,692.6266413062112,693.5157703335863,693.5157703335863,left,0.3599970788927749,686.2717002087738,S5,B-M,2023-01-27_13h23.56.052,knowing_that_K_ONLY,2022.2.5,59.582241433625285,
Does Anna know that the book is here?,Does Anna think that the book is here?,Is the book here?,late,4,per_4,per_K,1,1,1,no,O-X-B,O-O-B,O-X-B,R,stimuli/blue-R.png,mB-M,m0,stimuli/m0_w0_O-X-B.png,stimuli/mW-R_w0_O-X-B.png,stimuli/mB-M_w0_O-X-B.png,stimuli/mB-M_w0_O-O-B.png,stimuli/mB-M_w0_O-X-B.png,stimuli/mW-L_w0_O-X-B.png,stimuli/m0_wW-R_O-X-B.png,stimuli/m0_none_O-X-B.png,stimuli/m0_none_O-X-B.png,stimuli/m0_wW-L_O-X-B.png,2,18,74,3,,,,,,,,,693.8993190003093,700.5741753289476,701.3130863067927,701.3130863067927,701.3130863067927,702.1992328327615,702.1992328327615,left,0.4855219920864329,694.9550141763175,S5,B-M,2023-01-27_13h23.56.052,knowing_that_K_ONLY,2022.2.5,59.582241433625285,
Does Anna know that the book is here?,Does Anna think that the book is here?,Is the book here?,early,20,no_2,no_K,0,0,0,no,X-O-X,O-O-X,X-O-X,L,stimuli/blue-L.png,mB-L,m0,stimuli/m0_w0_X-O-X.png,stimuli/m0_wW-R_X-O-X.png,stimuli/m0_none_X-O-X.png,stimuli/mW-R_none_X-O-X.png,stimuli/mB-L_none_X-O-X.png,stimuli/mB-L_none_O-O-X.png,stimuli/mB-L_none_X-O-X.png,stimuli/mW-L_none_X-O-X.png,stimuli/m0_none_X-O-X.png,stimuli/m0_wW-L_X-O-X.png,2,19,75,19,,,,,,,,,702.7159267569659,709.3875295058824,710.123401200166,710.123401200166,710.123401200166,711.0158514967188,711.0158514967188,right,1.1005820046411827,703.7760339307133,S5,B-M,2023-01-27_13h23.56.052,knowing_that_K_ONLY,2022.2.5,59.582241433625285,
Does Anna know that the book is here?,Does Anna think that the book is here?,Is the book here?,early,23,no_5,no_K,0,0,0,no,X-O-X,X-O-O,X-O-X,R,stimuli/blue-R.png,mB-R,m0,stimuli/m0_w0_X-O-X.png,stimuli/m0_wW-R_X-O-X.png,stimuli/m0_none_X-O-X.png,stimuli/mW-R_none_X-O-X.png,stimuli/mB-R_none_X-O-X.png,stimuli/mB-R_none_X-O-O.png,stimuli/mB-R_none_X-O-X.png,stimuli/mW-L_none_X-O-X.png,stimuli/m0_none_X-O-X.png,stimuli/m0_wW-L_X-O-X.png,2,20,76,22,,,,,,,,,712.1327676728833,718.7840790175833,719.5427318649599,719.5427318649599,719.5427318649599,720.4327466281829,720.4327466281829,right,0.38680975779425353,713.1944005836267,S5,B-M,2023-01-27_13h23.56.052,knowing_that_K_ONLY,2022.2.5,59.582241433625285,
Does Anna know that the book is here?,Does Anna think that the book is here?,Is the book here?,early,19,no_1,no_K,0,0,0,no,X-X-X,O-X-X,X-X-X,L,stimuli/blue-L.png,mB-L,m0,stimuli/m0_w0_X-X-X.png,stimuli/m0_wW-R_X-X-X.png,stimuli/m0_none_X-X-X.png,stimuli/mW-R_none_X-X-X.png,stimuli/mB-L_none_X-X-X.png,stimuli/mB-L_none_O-X-X.png,stimuli/mB-L_none_X-X-X.png,stimuli/mW-L_none_X-X-X.png,stimuli/m0_none_X-X-X.png,stimuli/m0_wW-L_X-X-X.png,2,21,77,18,,,,,,,,,720.849236265407,727.5251839642879,728.2381583751412,728.2381583751412,728.2381583751412,729.1492700779345,729.1492700779345,right,1.1422378976130858,721.901530934032,S5,B-M,2023-01-27_13h23.56.052,knowing_that_K_ONLY,2022.2.5,59.582241433625285,
Does Anna know that the book is here?,Does Anna think that the book is here?,Is the book here?,late,6,per_6,per_K,1,1,1,no,X-B-X,O-B-X,X-B-X,M,stimuli/blue-M.png,mB-L,m0,stimuli/m0_w0_X-B-X.png,stimuli/mW-R_w0_X-B-X.png,stimuli/mB-L_w0_X-B-X.png,stimuli/mB-L_w0_O-B-X.png,stimuli/mB-L_w0_X-B-X.png,stimuli/mW-L_w0_X-B-X.png,stimuli/m0_wW-R_X-B-X.png,stimuli/m0_none_X-B-X.png,stimuli/m0_none_X-B-X.png,stimuli/m0_wW-L_X-B-X.png,2,22,78,5,,,,,,,,,730.3157909932779,736.9679829410743,737.728093194426,737.728093194426,737.728093194426,738.6159547308926,738.6159547308926,left,0.2597106662578881,731.3696235895623,S5,B-M,2023-01-27_13h23.56.052,knowing_that_K_ONLY,2022.2.5,59.582241433625285,
Does Anna know that the book is here?,Does Anna think that the book is here?,Is the book here?,late,12,mem_3,mem_K,1,1,1,no,X-O-B,X-O-B,X-O-X,R,stimuli/blue-R.png,mB-M,m0,stimuli/m0_w0_X-O-B.png,stimuli/mW-R_w0_X-O-B.png,stimuli/mB-M_w0_X-O-B.png,stimuli/mB-M_w0_X-O-B.png,stimuli/mB-M_w0_X-O-X.png,stimuli/mW-L_w0_X-O-X.png,stimuli/m0_wW-R_X-O-X.png,stimuli/m0_none_X-O-X.png,stimuli/m0_none_X-O-X.png,stimuli/m0_wW-L_X-O-X.png,2,23,79,11,,,,,,,,,738.899497687351,745.568988592946,746.3122814132366,746.3122814132366,746.3122814132366,747.1992921812925,747.1992921812925,left,0.37260590319056064,739.9553754000226,S5,B-M,2023-01-27_13h23.56.052,knowing_that_K_ONLY,2022.2.5,59.582241433625285,
Does Anna know that the book is here?,Does Anna think that the book is here?,Is the book here?,late,15,mem_6,mem_K,1,1,1,no,X-B-O,X-B-X,X-X-X,M,stimuli/blue-M.png,mB-R,m0,stimuli/m0_w0_X-B-O.png,stimuli/mW-R_w0_X-B-O.png,stimuli/mB-R_w0_X-B-O.png,stimuli/mB-R_w0_X-B-X.png,stimuli/mB-R_w0_X-X-X.png,stimuli/mW-L_w0_X-X-X.png,stimuli/m0_wW-R_X-X-X.png,stimuli/m0_none_X-X-X.png,stimuli/m0_none_X-X-X.png,stimuli/m0_wW-L_X-X-X.png,2,24,80,14,,,,,,,,,747.5992739596404,754.2492831667187,755.0096211899072,755.0096211899072,755.0096211899072,755.8992140978808,755.8992140978808,left,0.3213634669082239,748.6620906319004,S5,B-M,2023-01-27_13h23.56.052,knowing_that_K_ONLY,2022.2.5,59.582241433625285,
Does Anna know that the book is here?,Does Anna think that the book is here?,Is the book here?,late,13,mem_4,mem_K,1,1,1,no,B-X-O,B-X-O,X-X-O,L,stimuli/blue-L.png,mB-M,m0,stimuli/m0_w0_B-X-O.png,stimuli/mW-R_w0_B-X-O.png,stimuli/mB-M_w0_B-X-O.png,stimuli/mB-M_w0_B-X-O.png,stimuli/mB-M_w0_X-X-O.png,stimuli/mW-L_w0_X-X-O.png,stimuli/m0_wW-R_X-X-O.png,stimuli/m0_none_X-X-O.png,stimuli/m0_none_X-X-O.png,stimuli/m0_wW-L_X-X-O.png,2,25,81,12,,,,,,,,,756.2493235878646,762.9199289615499,763.659867149312,763.659867149312,763.659867149312,764.5495059320237,764.5495059320237,left,0.2865974506130442,757.3084006644785,S5,B-M,2023-01-27_13h23.56.052,knowing_that_K_ONLY,2022.2.5,59.582241433625285,
Does Anna know that the book is here?,Does Anna think that the book is here?,Is the book here?,early,1,per_1,per_K,1,1,1,no,B-X-X,B-O-X,B-X-X,L,stimuli/blue-L.png,mB-M,m0,stimuli/m0_w0_B-X-X.png,stimuli/m0_wW-R_B-X-X.png,stimuli/m0_none_B-X-X.png,stimuli/mW-R_none_B-X-X.png,stimuli/mB-M_none_B-X-X.png,stimuli/mB-M_none_B-O-X.png,stimuli/mB-M_none_B-X-X.png,stimuli/mW-L_none_B-X-X.png,stimuli/m0_none_B-X-X.png,stimuli/m0_wW-L_B-X-X.png,2,26,82,0,,,,,,,,,764.866289167665,771.5168617039453,772.2766197161982,772.2766197161982,772.2766197161982,773.1662158321124,773.1662158321124,left,0.45429154089652,765.9198955980828,S5,B-M,2023-01-27_13h23.56.052,knowing_that_K_ONLY,2022.2.5,59.582241433625285,
Does Anna know that the book is here?,Does Anna think that the book is here?,Is the book here?,early,21,no_3,no_K,0,0,0,no,X-X-O,X-O-O,X-X-O,M,stimuli/blue-M.png,mB-M,m0,stimuli/m0_w0_X-X-O.png,stimuli/m0_wW-R_X-X-O.png,stimuli/m0_none_X-X-O.png,stimuli/mW-R_none_X-X-O.png,stimuli/mB-M_none_X-X-O.png,stimuli/mB-M_none_X-O-O.png,stimuli/mB-M_none_X-X-O.png,stimuli/mW-L_none_X-X-O.png,stimuli/m0_none_X-X-O.png,stimuli/m0_wW-L_X-X-O.png,2,27,83,20,,,,,,,,,773.649242168176,780.3182852333412,781.0599868728314,781.0599868728314,781.0599868728314,781.9494735951303,781.9494735951303,right,0.9183327808277681,774.7013700194657,S5,B-M,2023-01-27_13h23.56.052,knowing_that_K_ONLY,2022.2.5,59.582241433625285,
