K_text,B_text,T_text,Anna_exit,trial_num,trial_code,cond,K_hit,B_hit,T_hit,book_move,start_shelf,mid_shelf,end_shelf,rectangle,rectangle_path,Todd_mid,Todd_final,frame_1,frame_2,frame_3,frame_4,frame_5,frame_6,frame_7,frame_8,frame_9,frame_10,trials.thisRepN,trials.thisTrialN,trials.thisN,trials.thisIndex,frames.thisRepN,frames.thisTrialN,frames.thisN,frames.thisIndex,sessionInst.started,startSession.started,startSession.keys,startSession.rt,crossText.started,movingImage.started,staticImage.started,promptText3.started,rectImage.started,respText.started,keyResp.started,keyResp.keys,keyResp.rt,crossText.stopped,subject,session,date,expName,psychopyVersion,frameRate,
,,,,,,,,,,,,,,,,,,,,,,,,,,,,,,,,,,,,13.325359892332926,13.325359892332926,left,12.523502627736889,,,,,,,,,,,S5,K-M,2023-01-27_13h37.00.981,knowing_that_K_ONLY,2022.2.5,59.740965125269355,
Does Anna know that the book is here?,Does Anna think that the book is here?,Is the book here?,early,24,no_6,no_K,0,0,0,no,X-X-X,X-X-O,X-X-X,R,stimuli/blue-R.png,mB-R,m0,stimuli/m0_w0_X-X-X.png,stimuli/m0_wW-R_X-X-X.png,stimuli/m0_none_X-X-X.png,stimuli/mW-R_none_X-X-X.png,stimuli/mB-R_none_X-X-X.png,stimuli/mB-R_none_X-X-O.png,stimuli/mB-R_none_X-X-X.png,stimuli/mW-L_none_X-X-X.png,stimuli/m0_none_X-X-X.png,stimuli/m0_wW-L_X-X-X.png,0,0,0,23,,,,,,,,,25.905939082149416,32.53981576953083,33.2801312210504,33.2801312210504,33.2801312210504,34.169117812183686,34.169117812183686,right,0.4870353954611346,,S5,K-M,2023-01-27_13h37.00.981,knowing_that_K_ONLY,2022.2.5,59.740965125269355,
Does Anna know that the book is here?,Does Anna think that the book is here?,Is the book here?,late,11,mem_2,mem_K,1,1,1,no,O-B-O,O-B-X,O-X-X,M,stimuli/blue-M.png,mB-L,m0,stimuli/m0_w0_O-B-O.png,stimuli/mW-R_w0_O-B-O.png,stimuli/mB-L_w0_O-B-O.png,stimuli/mB-L_w0_O-B-X.png,stimuli/mB-L_w0_O-X-X.png,stimuli/mW-L_w0_O-X-X.png,stimuli/m0_wW-R_O-X-X.png,stimuli/m0_none_O-X-X.png,stimuli/m0_none_O-X-X.png,stimuli/m0_wW-L_O-X-X.png,0,1,1,10,,,,,,,,,34.68609019299038,41.35950515558943,42.09839046932757,42.09839046932757,42.09839046932757,42.98600915831048,42.98600915831048,left,0.4229307008208707,35.746941949473694,S5,K-M,2023-01-27_13h37.00.981,knowing_that_K_ONLY,2022.2.5,59.740965125269355,
Does Anna know that the book is here?,Does Anna think that the book is here?,Is the book here?,early,25,no_7,no_K,0,0,0,hide,B-X-X,B-O-O,O-X-X,M,stimuli/blue-M.png,mB-L,m0,stimuli/m0_w0_B-X-X.png,stimuli/m0_wW-R_B-X-X.png,stimuli/m0_none_B-X-X.png,stimuli/mW-R_none_B-X-X.png,stimuli/mB-L_none_B-X-X.png,stimuli/mB-L_none_B-O-O.png,stimuli/mB-L_none_O-X-X.png,stimuli/mW-L_none_O-X-X.png,stimuli/m0_none_O-X-X.png,stimuli/m0_wW-L_O-X-X.png,0,2,2,24,,,,,,,,,43.43596107000485,50.08828101796098,50.84766946558375,50.84766946558375,50.84766946558375,51.7359935992863,51.7359935992863,right,0.7036833165911958,44.48706620268058,S5,K-M,2023-01-27_13h37.00.981,knowing_that_K_ONLY,2022.2.5,59.740965125269355,
Does Anna know that the book is here?,Does Anna think that the book is here?,Is the book here?,late,14,mem_5,mem_K,1,1,1,no,O-B-X,O-B-X,O-X-X,M,stimuli/blue-M.png,mB-L,m0,stimuli/m0_w0_O-B-X.png,stimuli/mW-R_w0_O-B-X.png,stimuli/mB-L_w0_O-B-X.png,stimuli/mB-L_w0_O-B-X.png,stimuli/mB-L_w0_O-X-X.png,stimuli/mW-L_w0_O-X-X.png,stimuli/m0_wW-R_O-X-X.png,stimuli/m0_none_O-X-X.png,stimuli/m0_none_O-X-X.png,stimuli/m0_wW-L_O-X-X.png,0,3,3,13,,,,,,,,,52.469372016144916,59.13938165945001,59.858126346138306,59.858126346138306,59.858126346138306,60.76947191404179,60.76947191404179,left,0.7987730482127517,53.52484583831392,S5,K-M,2023-01-27_13h37.00.981,knowing_that_K_ONLY,2022.2.5,59.740965125269355,
Does Anna know that the book is here?,Does Anna think that the book is here?,Is the book here?,early,21,no_3,no_K,0,0,0,no,X-X-O,X-O-O,X-X-O,M,stimuli/blue-M.png,mB-M,m0,stimuli/m0_w0_X-X-O.png,stimuli/m0_wW-R_X-X-O.png,stimuli/m0_none_X-X-O.png,stimuli/mW-R_none_X-X-O.png,stimuli/mB-M_none_X-X-O.png,stimuli/mB-M_none_X-O-O.png,stimuli/mB-M_none_X-X-O.png,stimuli/mW-L_none_X-X-O.png,stimuli/m0_none_X-X-O.png,stimuli/m0_wW-L_X-X-O.png,0,4,4,20,,,,,,,,,61.586135811172426,68.26053339196369,69.0002543964656,69.0002543964656,69.0002543964656,69.88607145810965,69.88607145810965,right,0.5936204456957057,62.6420946867438,S5,K-M,2023-01-27_13h37.00.981,knowing_that_K_ONLY,2022.2.5,59.740965125269355,
Does Anna know that the book is here?,Does Anna think that the book is here?,Is the book here?,late,12,mem_3,mem_K,1,1,1,no,X-O-B,X-O-B,X-O-X,R,stimuli/blue-R.png,mB-M,m0,stimuli/m0_w0_X-O-B.png,stimuli/mW-R_w0_X-O-B.png,stimuli/mB-M_w0_X-O-B.png,stimuli/mB-M_w0_X-O-B.png,stimuli/mB-M_w0_X-O-X.png,stimuli/mW-L_w0_X-O-X.png,stimuli/m0_wW-R_X-O-X.png,stimuli/m0_none_X-O-X.png,stimuli/m0_none_X-O-X.png,stimuli/m0_wW-L_X-O-X.png,0,5,5,11,,,,,,,,,70.50273740838747,77.17696271825116,77.89295427734032,77.89295427734032,77.89295427734032,78.80276288010646,78.80276288010646,left,0.10943087958730757,71.56707019347232,S5,K-M,2023-01-27_13h37.00.981,knowing_that_K_ONLY,2022.2.5,59.740965125269355,
Does Anna know that the book is here?,Does Anna think that the book is here?,Is the book here?,late,6,per_6,per_K,1,1,1,no,X-B-X,O-B-X,X-B-X,M,stimuli/blue-M.png,mB-L,m0,stimuli/m0_w0_X-B-X.png,stimuli/mW-R_w0_X-B-X.png,stimuli/mB-L_w0_X-B-X.png,stimuli/mB-L_w0_O-B-X.png,stimuli/mB-L_w0_X-B-X.png,stimuli/mW-L_w0_X-B-X.png,stimuli/m0_wW-R_X-B-X.png,stimuli/m0_none_X-B-X.png,stimuli/m0_none_X-B-X.png,stimuli/m0_wW-L_X-B-X.png,0,6,6,5,,,,,,,,,78.93607591732871,85.61097330856137,86.35059293941595,86.35059293941595,86.35059293941595,87.23608566971961,87.23608566971961,left,0.2754292075987905,79.99559762631543,S5,K-M,2023-01-27_13h37.00.981,knowing_that_K_ONLY,2022.2.5,59.740965125269355,
Does Anna know that the book is here?,Does Anna think that the book is here?,Is the book here?,early,19,no_1,no_K,0,0,0,no,X-X-X,O-X-X,X-X-X,L,stimuli/blue-L.png,mB-L,m0,stimuli/m0_w0_X-X-X.png,stimuli/m0_wW-R_X-X-X.png,stimuli/m0_none_X-X-X.png,stimuli/mW-R_none_X-X-X.png,stimuli/mB-L_none_X-X-X.png,stimuli/mB-L_none_O-X-X.png,stimuli/mB-L_none_X-X-X.png,stimuli/mW-L_none_X-X-X.png,stimuli/m0_none_X-X-X.png,stimuli/m0_wW-L_X-X-X.png,0,7,7,18,,,,,,,,,87.53622855513822,94.20753937365953,94.94501732650679,94.94501732650679,94.94501732650679,95.8360859262757,95.8360859262757,right,0.1086789183318615,88.58962806791533,S5,K-M,2023-01-27_13h37.00.981,knowing_that_K_ONLY,2022.2.5,59.740965125269355,
Does Anna know that the book is here?,Does Anna think that the book is here?,Is the book here?,early,26,no_8,no_K,0,0,0,hide,X-B-O,O-B-O,X-O-X,R,stimuli/blue-R.png,mB-L,m0,stimuli/m0_w0_X-B-O.png,stimuli/m0_wW-R_X-B-O.png,stimuli/m0_none_X-B-O.png,stimuli/mW-R_none_X-B-O.png,stimuli/mB-L_none_X-B-O.png,stimuli/mB-L_none_O-B-O.png,stimuli/mB-L_none_X-O-X.png,stimuli/mW-L_none_X-O-X.png,stimuli/m0_none_X-O-X.png,stimuli/m0_wW-L_X-O-X.png,0,8,8,25,,,,,,,,,95.96943232696503,102.64391235413495,103.35946473444346,103.35946473444346,103.35946473444346,104.26959831023123,104.26959831023123,right,0.5152833450119942,97.02218285622075,S5,K-M,2023-01-27_13h37.00.981,knowing_that_K_ONLY,2022.2.5,59.740965125269355,
Does Anna know that the book is here?,Does Anna think that the book is here?,Is the book here?,late,17,mem_8,mem_K,1,1,1,switch,O-X-B,B-X-O,X-X-O,L,stimuli/blue-L.png,mB-M,m0,stimuli/m0_w0_O-X-B.png,stimuli/mW-R_w0_O-X-B.png,stimuli/mB-M_w0_O-X-B.png,stimuli/mB-M_w0_B-X-O.png,stimuli/mB-M_w0_X-X-O.png,stimuli/mW-L_w0_X-X-O.png,stimuli/m0_wW-R_X-X-O.png,stimuli/m0_none_X-X-O.png,stimuli/m0_none_X-X-O.png,stimuli/m0_wW-L_X-X-O.png,0,9,9,16,,,,,,,,,104.80275133112445,111.45380090095568,112.21661584079266,112.21661584079266,112.21661584079266,113.1030597507488,113.1030597507488,left,0.36036938754841685,105.86046307208017,S5,K-M,2023-01-27_13h37.00.981,knowing_that_K_ONLY,2022.2.5,59.740965125269355,
Does Anna know that the book is here?,Does Anna think that the book is here?,Is the book here?,early,7,per_7,per_K,1,1,1,switch,B-X-O,O-X-B,X-X-B,R,stimuli/blue-R.png,mB-R,m0,stimuli/m0_w0_B-X-O.png,stimuli/m0_wW-R_B-X-O.png,stimuli/m0_none_B-X-O.png,stimuli/mW-R_none_B-X-O.png,stimuli/mB-R_none_B-X-O.png,stimuli/mB-R_none_O-X-B.png,stimuli/mB-R_none_X-X-B.png,stimuli/mW-L_none_X-X-B.png,stimuli/m0_none_X-X-B.png,stimuli/m0_wW-L_X-X-B.png,0,10,10,6,,,,,,,,,113.4862609882839,120.16096974769607,120.87623180169612,120.87623180169612,120.87623180169612,121.78618957765866,121.78618957765866,left,0.510469060856849,114.55029286071658,S5,K-M,2023-01-27_13h37.00.981,knowing_that_K_ONLY,2022.2.5,59.740965125269355,
Does Anna know that the book is here?,Does Anna think that the book is here?,Is the book here?,late,5,per_5,per_K,1,1,1,no,X-B-O,O-B-O,X-B-O,M,stimuli/blue-M.png,mB-L,m0,stimuli/m0_w0_X-B-O.png,stimuli/mW-R_w0_X-B-O.png,stimuli/mB-L_w0_X-B-O.png,stimuli/mB-L_w0_O-B-O.png,stimuli/mB-L_w0_X-B-O.png,stimuli/mW-L_w0_X-B-O.png,stimuli/m0_wW-R_X-B-O.png,stimuli/m0_none_X-B-O.png,stimuli/m0_none_X-B-O.png,stimuli/m0_wW-L_X-B-O.png,0,11,11,4,,,,,,,,,122.31949145090766,128.9722457655007,129.7366262220312,129.7366262220312,129.7366262220312,130.6195631182054,130.6195631182054,left,0.48461429844610393,123.38170373113826,S5,K-M,2023-01-27_13h37.00.981,knowing_that_K_ONLY,2022.2.5,59.740965125269355,
Does Anna know that the book is here?,Does Anna think that the book is here?,Is the book here?,early,1,per_1,per_K,1,1,1,no,B-X-X,B-O-X,B-X-X,L,stimuli/blue-L.png,mB-M,m0,stimuli/m0_w0_B-X-X.png,stimuli/m0_wW-R_B-X-X.png,stimuli/m0_none_B-X-X.png,stimuli/mW-R_none_B-X-X.png,stimuli/mB-M_none_B-X-X.png,stimuli/mB-M_none_B-O-X.png,stimuli/mB-M_none_B-X-X.png,stimuli/mW-L_none_B-X-X.png,stimuli/m0_none_B-X-X.png,stimuli/m0_wW-L_B-X-X.png,0,12,12,0,,,,,,,,,131.13638664665632,137.8150627714349,138.54992682486773,138.54992682486773,138.54992682486773,139.436238243361,139.436238243361,left,0.5872977477265522,132.192469672882,S5,K-M,2023-01-27_13h37.00.981,knowing_that_K_ONLY,2022.2.5,59.740965125269355,
Does Anna know that the book is here?,Does Anna think that the book is here?,Is the book here?,early,3,per_3,per_K,1,1,1,no,O-B-X,O-B-O,O-B-X,M,stimuli/blue-M.png,mB-R,m0,stimuli/m0_w0_O-B-X.png,stimuli/m0_wW-R_O-B-X.png,stimuli/m0_none_O-B-X.png,stimuli/mW-R_none_O-B-X.png,stimuli/mB-R_none_O-B-X.png,stimuli/mB-R_none_O-B-O.png,stimuli/mB-R_none_O-B-X.png,stimuli/mW-L_none_O-B-X.png,stimuli/m0_none_O-B-X.png,stimuli/m0_wW-L_O-B-X.png,0,13,13,2,,,,,,,,,140.05268797266763,146.73066057742108,147.46472102042753,147.46472102042753,147.46472102042753,148.35275097831618,148.35275097831618,left,0.3034150614403188,141.10724526189733,S5,K-M,2023-01-27_13h37.00.981,knowing_that_K_ONLY,2022.2.5,59.740965125269355,
Does Anna know that the book is here?,Does Anna think that the book is here?,Is the book here?,early,23,no_5,no_K,0,0,0,no,X-O-X,X-O-O,X-O-X,R,stimuli/blue-R.png,mB-R,m0,stimuli/m0_w0_X-O-X.png,stimuli/m0_wW-R_X-O-X.png,stimuli/m0_none_X-O-X.png,stimuli/mW-R_none_X-O-X.png,stimuli/mB-R_none_X-O-X.png,stimuli/mB-R_none_X-O-O.png,stimuli/mB-R_none_X-O-X.png,stimuli/mW-L_none_X-O-X.png,stimuli/m0_none_X-O-X.png,stimuli/m0_wW-L_X-O-X.png,0,14,14,22,,,,,,,,,148.68621434364468,155.359481416177,156.09990561986342,156.09990561986342,156.09990561986342,156.98613170487806,156.98613170487806,right,0.7496430969331414,149.74252834776416,S5,K-M,2023-01-27_13h37.00.981,knowing_that_K_ONLY,2022.2.5,59.740965125269355,
Does Anna know that the book is here?,Does Anna think that the book is here?,Is the book here?,late,15,mem_6,mem_K,1,1,1,no,X-B-O,X-B-X,X-X-X,M,stimuli/blue-M.png,mB-R,m0,stimuli/m0_w0_X-B-O.png,stimuli/mW-R_w0_X-B-O.png,stimuli/mB-R_w0_X-B-O.png,stimuli/mB-R_w0_X-B-X.png,stimuli/mB-R_w0_X-X-X.png,stimuli/mW-L_w0_X-X-X.png,stimuli/m0_wW-R_X-X-X.png,stimuli/m0_none_X-X-X.png,stimuli/m0_none_X-X-X.png,stimuli/m0_wW-L_X-X-X.png,0,15,15,14,,,,,,,,,157.75307376985438,164.42387066269293,165.1416898339521,165.1416898339521,165.1416898339521,166.0528409954859,166.0528409954859,right,0.6513806277653202,158.81766448030248,S5,K-M,2023-01-27_13h37.00.981,knowing_that_K_ONLY,2022.2.5,59.740965125269355,
Does Anna know that the book is here?,Does Anna think that the book is here?,Is the book here?,late,10,mem_1,mem_K,1,1,1,no,O-X-B,X-X-B,X-X-X,R,stimuli/blue-R.png,mB-M,m0,stimuli/m0_w0_O-X-B.png,stimuli/mW-R_w0_O-X-B.png,stimuli/mB-M_w0_O-X-B.png,stimuli/mB-M_w0_X-X-B.png,stimuli/mB-M_w0_X-X-X.png,stimuli/mW-L_w0_X-X-X.png,stimuli/m0_wW-R_X-X-X.png,stimuli/m0_none_X-X-X.png,stimuli/m0_none_X-X-X.png,stimuli/m0_wW-L_X-X-X.png,0,16,16,9,,,,,,,,,166.7363605974242,173.40852218447253,174.14825409615878,174.14825409615878,174.14825409615878,175.0362295175437,175.0362295175437,left,0.3009529017144814,167.8005782145774,S5,K-M,2023-01-27_13h37.00.981,knowing_that_K_ONLY,2022.2.5,59.740965125269355,
Does Anna know that the book is here?,Does Anna think that the book is here?,Is the book here?,late,18,mem_9,mem_K,1,1,1,switch,X-O-B,X-B-O,X-X-O,M,stimuli/blue-M.png,mB-L,m0,stimuli/m0_w0_X-O-B.png,stimuli/mW-R_w0_X-O-B.png,stimuli/mB-L_w0_X-O-B.png,stimuli/mB-L_w0_X-B-O.png,stimuli/mB-L_w0_X-X-O.png,stimuli/mW-L_w0_X-X-O.png,stimuli/m0_wW-R_X-X-O.png,stimuli/m0_none_X-X-O.png,stimuli/m0_none_X-X-O.png,stimuli/m0_wW-L_X-X-O.png,0,17,17,17,,,,,,,,,175.36983467754908,182.04447606846225,182.77686609246302,182.77686609246302,182.77686609246302,183.66969172796234,183.66969172796234,left,0.3227199977263808,176.42214217840228,S5,K-M,2023-01-27_13h37.00.981,knowing_that_K_ONLY,2022.2.5,59.740965125269355,
Does Anna know that the book is here?,Does Anna think that the book is here?,Is the book here?,late,13,mem_4,mem_K,1,1,1,no,B-X-O,B-X-O,X-X-O,L,stimuli/blue-L.png,mB-M,m0,stimuli/m0_w0_B-X-O.png,stimuli/mW-R_w0_B-X-O.png,stimuli/mB-M_w0_B-X-O.png,stimuli/mB-M_w0_B-X-O.png,stimuli/mB-M_w0_X-X-O.png,stimuli/mW-L_w0_X-X-O.png,stimuli/m0_wW-R_X-X-O.png,stimuli/m0_none_X-X-O.png,stimuli/m0_none_X-X-O.png,stimuli/m0_wW-L_X-X-O.png,0,18,18,12,,,,,,,,,184.01950511708856,190.6921187149128,191.432180411648,191.432180411648,191.432180411648,192.31973044888582,192.31973044888582,left,0.5044228947954252,185.07203172612935,S5,K-M,2023-01-27_13h37.00.981,knowing_that_K_ONLY,2022.2.5,59.740965125269355,
Does Anna know that the book is here?,Does Anna think that the book is here?,Is the book here?,early,2,per_2,per_K,1,1,1,no,X-X-B,O-X-B,X-X-B,R,stimuli/blue-R.png,mB-L,m0,stimuli/m0_w0_X-X-B.png,stimuli/m0_wW-R_X-X-B.png,stimuli/m0_none_X-X-B.png,stimuli/mW-R_none_X-X-B.png,stimuli/mB-L_none_X-X-B.png,stimuli/mB-L_none_O-X-B.png,stimuli/mB-L_none_X-X-B.png,stimuli/mW-L_none_X-X-B.png,stimuli/m0_none_X-X-B.png,stimuli/m0_wW-L_X-X-B.png,0,19,19,1,,,,,,,,,192.85285716387443,199.52379970112815,200.2632230008021,200.2632230008021,200.2632230008021,201.15272480074782,201.15272480074782,left,0.3281181426718831,193.91303908464033,S5,K-M,2023-01-27_13h37.00.981,knowing_that_K_ONLY,2022.2.5,59.740965125269355,
Does Anna know that the book is here?,Does Anna think that the book is here?,Is the book here?,early,22,no_4,no_K,0,0,0,no,O-X-X,O-O-X,O-X-X,M,stimuli/blue-M.png,mB-M,m0,stimuli/m0_w0_O-X-X.png,stimuli/m0_wW-R_O-X-X.png,stimuli/m0_none_O-X-X.png,stimuli/mW-R_none_O-X-X.png,stimuli/mB-M_none_O-X-X.png,stimuli/mB-M_none_O-O-X.png,stimuli/mB-M_none_O-X-X.png,stimuli/mW-L_none_O-X-X.png,stimuli/m0_none_O-X-X.png,stimuli/m0_wW-L_O-X-X.png,0,20,20,21,,,,,,,,,201.50273452105466,208.17438667360693,208.91440474113915,208.91440474113915,208.91440474113915,209.80289890035056,209.80289890035056,right,0.557396061019972,202.56026051728986,S5,K-M,2023-01-27_13h37.00.981,knowing_that_K_ONLY,2022.2.5,59.740965125269355,
Does Anna know that the book is here?,Does Anna think that the book is here?,Is the book here?,early,8,per_8,per_K,1,1,1,switch,O-X-B,B-X-O,B-X-X,L,stimuli/blue-L.png,mB-L,m0,stimuli/m0_w0_O-X-B.png,stimuli/m0_wW-R_O-X-B.png,stimuli/m0_none_O-X-B.png,stimuli/mW-R_none_O-X-B.png,stimuli/mB-L_none_O-X-B.png,stimuli/mB-L_none_B-X-O.png,stimuli/mB-L_none_B-X-X.png,stimuli/mW-L_none_B-X-X.png,stimuli/m0_none_B-X-X.png,stimuli/m0_wW-L_B-X-X.png,0,21,21,7,,,,,,,,,210.3856524899602,217.0632253746735,217.80039054504596,217.80039054504596,217.80039054504596,218.66944791795686,218.66944791795686,left,0.33220420498400927,211.45396322698798,S5,K-M,2023-01-27_13h37.00.981,knowing_that_K_ONLY,2022.2.5,59.740965125269355,
Does Anna know that the book is here?,Does Anna think that the book is here?,Is the book here?,early,27,no_9,no_K,0,0,0,hide,X-X-B,O-O-B,X-X-O,L,stimuli/blue-L.png,mB-M,m0,stimuli/m0_w0_X-X-B.png,stimuli/m0_wW-R_X-X-B.png,stimuli/m0_none_X-X-B.png,stimuli/mW-R_none_X-X-B.png,stimuli/mB-M_none_X-X-B.png,stimuli/mB-M_none_O-O-B.png,stimuli/mB-M_none_X-X-O.png,stimuli/mW-L_none_X-X-O.png,stimuli/m0_none_X-X-O.png,stimuli/m0_wW-L_X-X-O.png,0,22,22,26,,,,,,,,,219.01944223977625,225.67090051202103,226.43374913628213,226.43374913628213,226.43374913628213,227.31986069469713,227.31986069469713,right,0.5127820473862812,220.07054480619263,S5,K-M,2023-01-27_13h37.00.981,knowing_that_K_ONLY,2022.2.5,59.740965125269355,
Does Anna know that the book is here?,Does Anna think that the book is here?,Is the book here?,early,28,no_10,no_K,0,0,0,hide,O-B-O,O-B-O,X-O-X,L,stimuli/blue-L.png,mB-M,m0,stimuli/m0_w0_O-B-O.png,stimuli/m0_wW-R_O-B-O.png,stimuli/m0_none_O-B-O.png,stimuli/mW-R_none_O-B-O.png,stimuli/mB-M_none_O-B-O.png,stimuli/mB-M_none_O-B-O.png,stimuli/mB-M_none_X-O-X.png,stimuli/mW-L_none_X-O-X.png,stimuli/m0_none_X-O-X.png,stimuli/m0_wW-L_X-O-X.png,0,23,23,27,,,,,,,,,227.85298259777483,234.5243749001529,235.26519689895213,235.26519689895213,235.26519689895213,236.15306132263504,236.15306132263504,right,0.3830790015636012,228.9075819121208,S5,K-M,2023-01-27_13h37.00.981,knowing_that_K_ONLY,2022.2.5,59.740965125269355,
Does Anna know that the book is here?,Does Anna think that the book is here?,Is the book here?,late,4,per_4,per_K,1,1,1,no,O-X-B,O-O-B,O-X-B,R,stimuli/blue-R.png,mB-M,m0,stimuli/m0_w0_O-X-B.png,stimuli/mW-R_w0_O-X-B.png,stimuli/mB-M_w0_O-X-B.png,stimuli/mB-M_w0_O-O-B.png,stimuli/mB-M_w0_O-X-B.png,stimuli/mW-L_w0_O-X-B.png,stimuli/m0_wW-R_O-X-B.png,stimuli/m0_none_O-X-B.png,stimuli/m0_none_O-X-B.png,stimuli/m0_wW-L_O-X-B.png,0,24,24,3,,,,,,,,,236.55295905086678,243.228019409813,243.96538508182857,243.96538508182857,243.96538508182857,244.8530480414629,244.8530480414629,left,0.6750998074421659,237.61161748017184,S5,K-M,2023-01-27_13h37.00.981,knowing_that_K_ONLY,2022.2.5,59.740965125269355,
Does Anna know that the book is here?,Does Anna think that the book is here?,Is the book here?,late,16,mem_7,mem_K,1,1,1,switch,B-X-O,O-X-B,O-X-X,R,stimuli/blue-R.png,mB-M,m0,stimuli/m0_w0_B-X-O.png,stimuli/mW-R_w0_B-X-O.png,stimuli/mB-M_w0_B-X-O.png,stimuli/mB-M_w0_O-X-B.png,stimuli/mB-M_w0_O-X-X.png,stimuli/mW-L_w0_O-X-X.png,stimuli/m0_wW-R_O-X-X.png,stimuli/m0_none_O-X-X.png,stimuli/m0_none_O-X-X.png,stimuli/m0_wW-L_O-X-X.png,0,25,25,15,,,,,,,,,245.55294461466838,252.20367049472407,252.96476753684692,252.96476753684692,252.96476753684692,253.85305317433085,253.85305317433085,left,0.3792848694138229,246.6163265410578,S5,K-M,2023-01-27_13h37.00.981,knowing_that_K_ONLY,2022.2.5,59.740965125269355,
Does Anna know that the book is here?,Does Anna think that the book is here?,Is the book here?,early,9,per_9,per_K,1,1,1,switch,X-O-B,X-B-O,X-B-X,M,stimuli/blue-M.png,mB-R,m0,stimuli/m0_w0_X-O-B.png,stimuli/m0_wW-R_X-O-B.png,stimuli/m0_none_X-O-B.png,stimuli/mW-R_none_X-O-B.png,stimuli/mB-R_none_X-O-B.png,stimuli/mB-R_none_X-B-O.png,stimuli/mB-R_none_X-B-X.png,stimuli/mW-L_none_X-B-X.png,stimuli/m0_none_X-B-X.png,stimuli/m0_wW-L_X-B-X.png,0,26,26,8,,,,,,,,,254.25301185494754,260.92752620799,261.6658728941111,261.6658728941111,261.6658728941111,262.5529901686823,262.5529901686823,left,0.32764014683198184,255.31781269109342,S5,K-M,2023-01-27_13h37.00.981,knowing_that_K_ONLY,2022.2.5,59.740965125269355,
Does Anna know that the book is here?,Does Anna think that the book is here?,Is the book here?,early,20,no_2,no_K,0,0,0,no,X-O-X,O-O-X,X-O-X,L,stimuli/blue-L.png,mB-L,m0,stimuli/m0_w0_X-O-X.png,stimuli/m0_wW-R_X-O-X.png,stimuli/m0_none_X-O-X.png,stimuli/mW-R_none_X-O-X.png,stimuli/mB-L_none_X-O-X.png,stimuli/mB-L_none_O-O-X.png,stimuli/mB-L_none_X-O-X.png,stimuli/mW-L_none_X-O-X.png,stimuli/m0_none_X-O-X.png,stimuli/m0_wW-L_X-O-X.png,0,27,27,19,,,,,,,,,262.90288022963796,269.575877186493,270.2929196947953,270.2929196947953,270.2929196947953,271.20307893469,271.20307893469,right,0.7331528823124245,263.955787952058,S5,K-M,2023-01-27_13h37.00.981,knowing_that_K_ONLY,2022.2.5,59.740965125269355,
Does Anna know that the book is here?,Does Anna think that the book is here?,Is the book here?,late,10,mem_1,mem_K,1,1,1,no,O-X-B,X-X-B,X-X-X,R,stimuli/blue-R.png,mB-M,m0,stimuli/m0_w0_O-X-B.png,stimuli/mW-R_w0_O-X-B.png,stimuli/mB-M_w0_O-X-B.png,stimuli/mB-M_w0_X-X-B.png,stimuli/mB-M_w0_X-X-X.png,stimuli/mW-L_w0_X-X-X.png,stimuli/m0_wW-R_X-X-X.png,stimuli/m0_none_X-X-X.png,stimuli/m0_none_X-X-X.png,stimuli/m0_wW-L_X-X-X.png,1,0,28,9,,,,,,,,,271.95365557738114,278.62817634642124,279.3631898938911,279.3631898938911,279.3631898938911,280.2531234942144,280.2531234942144,right,0.5948279466247186,273.00898920884356,S5,K-M,2023-01-27_13h37.00.981,knowing_that_K_ONLY,2022.2.5,59.740965125269355,
Does Anna know that the book is here?,Does Anna think that the book is here?,Is the book here?,early,7,per_7,per_K,1,1,1,switch,B-X-O,O-X-B,X-X-B,R,stimuli/blue-R.png,mB-R,m0,stimuli/m0_w0_B-X-O.png,stimuli/m0_wW-R_B-X-O.png,stimuli/m0_none_B-X-O.png,stimuli/mW-R_none_B-X-O.png,stimuli/mB-R_none_B-X-O.png,stimuli/mB-R_none_O-X-B.png,stimuli/mB-R_none_X-X-B.png,stimuli/mW-L_none_X-X-B.png,stimuli/m0_none_X-X-B.png,stimuli/m0_wW-L_X-X-B.png,1,1,29,6,,,,,,,,,280.8696611233754,287.5224847313948,288.2804205849534,288.2804205849534,288.2804205849534,289.16982197377365,289.16982197377365,left,0.5676482694689184,281.92689390608575,S5,K-M,2023-01-27_13h37.00.981,knowing_that_K_ONLY,2022.2.5,59.740965125269355,
Does Anna know that the book is here?,Does Anna think that the book is here?,Is the book here?,early,2,per_2,per_K,1,1,1,no,X-X-B,O-X-B,X-X-B,R,stimuli/blue-R.png,mB-L,m0,stimuli/m0_w0_X-X-B.png,stimuli/m0_wW-R_X-X-B.png,stimuli/m0_none_X-X-B.png,stimuli/mW-R_none_X-X-B.png,stimuli/mB-L_none_X-X-B.png,stimuli/mB-L_none_O-X-B.png,stimuli/mB-L_none_X-X-B.png,stimuli/mW-L_none_X-X-B.png,stimuli/m0_none_X-X-B.png,stimuli/m0_wW-L_X-X-B.png,1,2,30,1,,,,,,,,,289.76967851095833,296.42117399629205,297.15807193808723,297.15807193808723,297.15807193808723,298.06972932606004,298.06972932606004,left,0.33159981295466423,290.83180641999934,S5,K-M,2023-01-27_13h37.00.981,knowing_that_K_ONLY,2022.2.5,59.740965125269355,
Does Anna know that the book is here?,Does Anna think that the book is here?,Is the book here?,early,3,per_3,per_K,1,1,1,no,O-B-X,O-B-O,O-B-X,M,stimuli/blue-M.png,mB-R,m0,stimuli/m0_w0_O-B-X.png,stimuli/m0_wW-R_O-B-X.png,stimuli/m0_none_O-B-X.png,stimuli/mW-R_none_O-B-X.png,stimuli/mB-R_none_O-B-X.png,stimuli/mB-R_none_O-B-O.png,stimuli/mB-R_none_O-B-X.png,stimuli/mW-L_none_O-B-X.png,stimuli/m0_none_O-B-X.png,stimuli/m0_wW-L_O-B-X.png,1,3,31,2,,,,,,,,,298.4196979836561,305.0718087683199,305.81062125985045,305.81062125985045,305.81062125985045,306.7193997655995,306.7193997655995,left,0.5930754020810127,299.48448983731214,S5,K-M,2023-01-27_13h37.00.981,knowing_that_K_ONLY,2022.2.5,59.740965125269355,
Does Anna know that the book is here?,Does Anna think that the book is here?,Is the book here?,late,5,per_5,per_K,1,1,1,no,X-B-O,O-B-O,X-B-O,M,stimuli/blue-M.png,mB-L,m0,stimuli/m0_w0_X-B-O.png,stimuli/mW-R_w0_X-B-O.png,stimuli/mB-L_w0_X-B-O.png,stimuli/mB-L_w0_O-B-O.png,stimuli/mB-L_w0_X-B-O.png,stimuli/mW-L_w0_X-B-O.png,stimuli/m0_wW-R_X-B-O.png,stimuli/m0_none_X-B-O.png,stimuli/m0_none_X-B-O.png,stimuli/m0_wW-L_X-B-O.png,1,4,32,4,,,,,,,,,307.33628995670006,314.010340750101,314.7520950011676,314.7520950011676,314.7520950011676,315.63633628061507,315.63633628061507,left,0.3403557982528582,308.3911792766303,S5,K-M,2023-01-27_13h37.00.981,knowing_that_K_ONLY,2022.2.5,59.740965125269355,
Does Anna know that the book is here?,Does Anna think that the book is here?,Is the book here?,late,14,mem_5,mem_K,1,1,1,no,O-B-X,O-B-X,O-X-X,M,stimuli/blue-M.png,mB-L,m0,stimuli/m0_w0_O-B-X.png,stimuli/mW-R_w0_O-B-X.png,stimuli/mB-L_w0_O-B-X.png,stimuli/mB-L_w0_O-B-X.png,stimuli/mB-L_w0_O-X-X.png,stimuli/mW-L_w0_O-X-X.png,stimuli/m0_wW-R_O-X-X.png,stimuli/m0_none_O-X-X.png,stimuli/m0_none_O-X-X.png,stimuli/m0_wW-L_O-X-X.png,1,5,33,13,,,,,,,,,316.0029908423312,322.65368817094713,323.41708953795023,323.41708953795023,323.41708953795023,324.30307020887267,324.30307020887267,left,0.5294862372102216,317.05615552759264,S5,K-M,2023-01-27_13h37.00.981,knowing_that_K_ONLY,2022.2.5,59.740965125269355,
Does Anna know that the book is here?,Does Anna think that the book is here?,Is the book here?,early,25,no_7,no_K,0,0,0,hide,B-X-X,B-O-O,O-X-X,M,stimuli/blue-M.png,mB-L,m0,stimuli/m0_w0_B-X-X.png,stimuli/m0_wW-R_B-X-X.png,stimuli/m0_none_B-X-X.png,stimuli/mW-R_none_B-X-X.png,stimuli/mB-L_none_B-X-X.png,stimuli/mB-L_none_B-O-O.png,stimuli/mB-L_none_O-X-X.png,stimuli/mW-L_none_O-X-X.png,stimuli/m0_none_O-X-X.png,stimuli/m0_wW-L_O-X-X.png,1,6,34,24,,,,,,,,,324.85338777140714,331.5265553952195,332.2654140823288,332.2654140823288,332.2654140823288,333.1532579746563,333.1532579746563,right,0.43907573190517724,325.90195311023854,S5,K-M,2023-01-27_13h37.00.981,knowing_that_K_ONLY,2022.2.5,59.740965125269355,
Does Anna know that the book is here?,Does Anna think that the book is here?,Is the book here?,late,11,mem_2,mem_K,1,1,1,no,O-B-O,O-B-X,O-X-X,M,stimuli/blue-M.png,mB-L,m0,stimuli/m0_w0_O-B-O.png,stimuli/mW-R_w0_O-B-O.png,stimuli/mB-L_w0_O-B-O.png,stimuli/mB-L_w0_O-B-X.png,stimuli/mB-L_w0_O-X-X.png,stimuli/mW-L_w0_O-X-X.png,stimuli/m0_wW-R_O-X-X.png,stimuli/m0_none_O-X-X.png,stimuli/m0_none_O-X-X.png,stimuli/m0_wW-L_O-X-X.png,1,7,35,10,,,,,,,,,333.6197979457211,340.27097711968236,341.00879159441683,341.00879159441683,341.00879159441683,341.91977048502304,341.91977048502304,left,0.5684438599273562,334.68522915884387,S5,K-M,2023-01-27_13h37.00.981,knowing_that_K_ONLY,2022.2.5,59.740965125269355,
Does Anna know that the book is here?,Does Anna think that the book is here?,Is the book here?,early,24,no_6,no_K,0,0,0,no,X-X-X,X-X-O,X-X-X,R,stimuli/blue-R.png,mB-R,m0,stimuli/m0_w0_X-X-X.png,stimuli/m0_wW-R_X-X-X.png,stimuli/m0_none_X-X-X.png,stimuli/mW-R_none_X-X-X.png,stimuli/mB-R_none_X-X-X.png,stimuli/mB-R_none_X-X-O.png,stimuli/mB-R_none_X-X-X.png,stimuli/mW-L_none_X-X-X.png,stimuli/m0_none_X-X-X.png,stimuli/m0_wW-L_X-X-X.png,1,8,36,23,,,,,,,,,342.5197835736908,349.17147667345125,349.9335248952266,349.9335248952266,349.9335248952266,350.8198077622801,350.8198077622801,right,0.5404416450764984,343.58029977069236,S5,K-M,2023-01-27_13h37.00.981,knowing_that_K_ONLY,2022.2.5,59.740965125269355,
Does Anna know that the book is here?,Does Anna think that the book is here?,Is the book here?,late,18,mem_9,mem_K,1,1,1,switch,X-O-B,X-B-O,X-X-O,M,stimuli/blue-M.png,mB-L,m0,stimuli/m0_w0_X-O-B.png,stimuli/mW-R_w0_X-O-B.png,stimuli/mB-L_w0_X-O-B.png,stimuli/mB-L_w0_X-B-O.png,stimuli/mB-L_w0_X-X-O.png,stimuli/mW-L_w0_X-X-O.png,stimuli/m0_wW-R_X-X-O.png,stimuli/m0_none_X-X-O.png,stimuli/m0_none_X-X-O.png,stimuli/m0_wW-L_X-X-O.png,1,9,37,17,,,,,,,,,351.38639418547973,358.058874008595,358.7746127753053,358.7746127753053,358.7746127753053,359.68664838944096,359.68664838944096,left,0.5061516999267042,352.439003561507,S5,K-M,2023-01-27_13h37.00.981,knowing_that_K_ONLY,2022.2.5,59.740965125269355,
Does Anna know that the book is here?,Does Anna think that the book is here?,Is the book here?,early,28,no_10,no_K,0,0,0,hide,O-B-O,O-B-O,X-O-X,L,stimuli/blue-L.png,mB-M,m0,stimuli/m0_w0_O-B-O.png,stimuli/m0_wW-R_O-B-O.png,stimuli/m0_none_O-B-O.png,stimuli/mW-R_none_O-B-O.png,stimuli/mB-M_none_O-B-O.png,stimuli/mB-M_none_O-B-O.png,stimuli/mB-M_none_X-O-X.png,stimuli/mW-L_none_X-O-X.png,stimuli/m0_none_X-O-X.png,stimuli/m0_wW-L_X-O-X.png,1,10,38,27,,,,,,,,,360.2198132800404,366.8713373168139,367.6313346477691,367.6313346477691,367.6313346477691,368.5192102995934,368.5192102995934,right,0.6577023632125929,361.27283745387103,S5,K-M,2023-01-27_13h37.00.981,knowing_that_K_ONLY,2022.2.5,59.740965125269355,
Does Anna know that the book is here?,Does Anna think that the book is here?,Is the book here?,early,20,no_2,no_K,0,0,0,no,X-O-X,O-O-X,X-O-X,L,stimuli/blue-L.png,mB-L,m0,stimuli/m0_w0_X-O-X.png,stimuli/m0_wW-R_X-O-X.png,stimuli/m0_none_X-O-X.png,stimuli/mW-R_none_X-O-X.png,stimuli/mB-L_none_X-O-X.png,stimuli/mB-L_none_O-O-X.png,stimuli/mB-L_none_X-O-X.png,stimuli/mW-L_none_X-O-X.png,stimuli/m0_none_X-O-X.png,stimuli/m0_wW-L_X-O-X.png,1,11,39,19,,,,,,,,,369.2031408495968,375.8767155719688,376.591508933343,376.591508933343,376.591508933343,377.5034544020891,377.5034544020891,right,1.0820824604015797,370.2597252903506,S5,K-M,2023-01-27_13h37.00.981,knowing_that_K_ONLY,2022.2.5,59.740965125269355,
Does Anna know that the book is here?,Does Anna think that the book is here?,Is the book here?,early,27,no_9,no_K,0,0,0,hide,X-X-B,O-O-B,X-X-O,L,stimuli/blue-L.png,mB-M,m0,stimuli/m0_w0_X-X-B.png,stimuli/m0_wW-R_X-X-B.png,stimuli/m0_none_X-X-B.png,stimuli/mW-R_none_X-X-B.png,stimuli/mB-M_none_X-X-B.png,stimuli/mB-M_none_O-O-B.png,stimuli/mB-M_none_X-X-O.png,stimuli/mW-L_none_X-X-O.png,stimuli/m0_none_X-X-O.png,stimuli/m0_wW-L_X-X-O.png,1,12,40,26,,,,,,,,,378.60319063824136,385.25517374346964,385.9946602411801,385.9946602411801,385.9946602411801,386.90319269138854,386.90319269138854,right,0.31384371139574796,379.6678609077353,S5,K-M,2023-01-27_13h37.00.981,knowing_that_K_ONLY,2022.2.5,59.740965125269355,
Does Anna know that the book is here?,Does Anna think that the book is here?,Is the book here?,early,21,no_3,no_K,0,0,0,no,X-X-O,X-O-O,X-X-O,M,stimuli/blue-M.png,mB-M,m0,stimuli/m0_w0_X-X-O.png,stimuli/m0_wW-R_X-X-O.png,stimuli/m0_none_X-X-O.png,stimuli/mW-R_none_X-X-O.png,stimuli/mB-M_none_X-X-O.png,stimuli/mB-M_none_X-O-O.png,stimuli/mB-M_none_X-X-O.png,stimuli/mW-L_none_X-X-O.png,stimuli/m0_none_X-X-O.png,stimuli/m0_wW-L_X-X-O.png,1,13,41,20,,,,,,,,,387.23649565537926,393.88727125979494,394.6265720127849,394.6265720127849,394.6265720127849,395.536523693474,395.536523693474,right,0.5442537420894951,388.29928120970726,S5,K-M,2023-01-27_13h37.00.981,knowing_that_K_ONLY,2022.2.5,59.740965125269355,
Does Anna know that the book is here?,Does Anna think that the book is here?,Is the book here?,late,6,per_6,per_K,1,1,1,no,X-B-X,O-B-X,X-B-X,M,stimuli/blue-M.png,mB-L,m0,stimuli/m0_w0_X-B-X.png,stimuli/mW-R_w0_X-B-X.png,stimuli/mB-L_w0_X-B-X.png,stimuli/mB-L_w0_O-B-X.png,stimuli/mB-L_w0_X-B-X.png,stimuli/mW-L_w0_X-B-X.png,stimuli/m0_wW-R_X-B-X.png,stimuli/m0_none_X-B-X.png,stimuli/m0_none_X-B-X.png,stimuli/m0_wW-L_X-B-X.png,1,14,42,5,,,,,,,,,396.1032320216764,402.778035097057,403.4935682292562,403.4935682292562,403.4935682292562,404.4030691822991,404.4030691822991,left,0.5018442836590111,397.1585800893372,S5,K-M,2023-01-27_13h37.00.981,knowing_that_K_ONLY,2022.2.5,59.740965125269355,
Does Anna know that the book is here?,Does Anna think that the book is here?,Is the book here?,early,9,per_9,per_K,1,1,1,switch,X-O-B,X-B-O,X-B-X,M,stimuli/blue-M.png,mB-R,m0,stimuli/m0_w0_X-O-B.png,stimuli/m0_wW-R_X-O-B.png,stimuli/m0_none_X-O-B.png,stimuli/mW-R_none_X-O-B.png,stimuli/mB-R_none_X-O-B.png,stimuli/mB-R_none_X-B-O.png,stimuli/mB-R_none_X-B-X.png,stimuli/mW-L_none_X-B-X.png,stimuli/m0_none_X-B-X.png,stimuli/m0_wW-L_X-B-X.png,1,15,43,8,,,,,,,,,404.9365539130522,411.6090950095095,412.3492930473294,412.3492930473294,412.3492930473294,413.23663456283975,413.23663456283975,left,0.29986473941244185,405.99053119134624,S5,K-M,2023-01-27_13h37.00.981,knowing_that_K_ONLY,2022.2.5,59.740965125269355,
Does Anna know that the book is here?,Does Anna think that the book is here?,Is the book here?,early,1,per_1,per_K,1,1,1,no,B-X-X,B-O-X,B-X-X,L,stimuli/blue-L.png,mB-M,m0,stimuli/m0_w0_B-X-X.png,stimuli/m0_wW-R_B-X-X.png,stimuli/m0_none_B-X-X.png,stimuli/mW-R_none_B-X-X.png,stimuli/mB-M_none_B-X-X.png,stimuli/mB-M_none_B-O-X.png,stimuli/mB-M_none_B-X-X.png,stimuli/mW-L_none_B-X-X.png,stimuli/m0_none_B-X-X.png,stimuli/m0_wW-L_B-X-X.png,1,16,44,0,,,,,,,,,413.55334208905697,420.2286966240499,420.96700000192504,420.96700000192504,420.96700000192504,421.8534314004937,421.8534314004937,left,0.2508897357620299,414.61203131545335,S5,K-M,2023-01-27_13h37.00.981,knowing_that_K_ONLY,2022.2.5,59.740965125269355,
Does Anna know that the book is here?,Does Anna think that the book is here?,Is the book here?,late,12,mem_3,mem_K,1,1,1,no,X-O-B,X-O-B,X-O-X,R,stimuli/blue-R.png,mB-M,m0,stimuli/m0_w0_X-O-B.png,stimuli/mW-R_w0_X-O-B.png,stimuli/mB-M_w0_X-O-B.png,stimuli/mB-M_w0_X-O-B.png,stimuli/mB-M_w0_X-O-X.png,stimuli/mW-L_w0_X-O-X.png,stimuli/m0_wW-R_X-O-X.png,stimuli/m0_none_X-O-X.png,stimuli/m0_none_X-O-X.png,stimuli/m0_wW-L_X-O-X.png,1,17,45,11,,,,,,,,,422.1367799505824,428.78653283638414,429.54959126538597,429.54959126538597,429.54959126538597,430.43663186812773,430.43663186812773,left,0.5875383497914299,423.2003851555055,S5,K-M,2023-01-27_13h37.00.981,knowing_that_K_ONLY,2022.2.5,59.740965125269355,
Does Anna know that the book is here?,Does Anna think that the book is here?,Is the book here?,late,15,mem_6,mem_K,1,1,1,no,X-B-O,X-B-X,X-X-X,M,stimuli/blue-M.png,mB-R,m0,stimuli/m0_w0_X-B-O.png,stimuli/mW-R_w0_X-B-O.png,stimuli/mB-R_w0_X-B-O.png,stimuli/mB-R_w0_X-B-X.png,stimuli/mB-R_w0_X-X-X.png,stimuli/mW-L_w0_X-X-X.png,stimuli/m0_wW-R_X-X-X.png,stimuli/m0_none_X-X-X.png,stimuli/m0_none_X-X-X.png,stimuli/m0_wW-L_X-X-X.png,1,18,46,14,,,,,,,,,431.0532824198017,437.72756290773395,438.46413106448017,438.46413106448017,438.46413106448017,439.353449686314,439.353449686314,left,0.2798495462629944,432.1169174594106,S5,K-M,2023-01-27_13h37.00.981,knowing_that_K_ONLY,2022.2.5,59.740965125269355,
Does Anna know that the book is here?,Does Anna think that the book is here?,Is the book here?,late,16,mem_7,mem_K,1,1,1,switch,B-X-O,O-X-B,O-X-X,R,stimuli/blue-R.png,mB-M,m0,stimuli/m0_w0_B-X-O.png,stimuli/mW-R_w0_B-X-O.png,stimuli/mB-M_w0_B-X-O.png,stimuli/mB-M_w0_O-X-B.png,stimuli/mB-M_w0_O-X-X.png,stimuli/mW-L_w0_O-X-X.png,stimuli/m0_wW-R_O-X-X.png,stimuli/m0_none_O-X-X.png,stimuli/m0_none_O-X-X.png,stimuli/m0_wW-L_O-X-X.png,1,19,47,15,,,,,,,,,439.65322364878375,446.33026720932685,447.06711157702375,447.06711157702375,447.06711157702375,447.95345700054895,447.95345700054895,left,0.286867423215881,440.70896630350035,S5,K-M,2023-01-27_13h37.00.981,knowing_that_K_ONLY,2022.2.5,59.740965125269355,
Does Anna know that the book is here?,Does Anna think that the book is here?,Is the book here?,early,26,no_8,no_K,0,0,0,hide,X-B-O,O-B-O,X-O-X,R,stimuli/blue-R.png,mB-L,m0,stimuli/m0_w0_X-B-O.png,stimuli/m0_wW-R_X-B-O.png,stimuli/m0_none_X-B-O.png,stimuli/mW-R_none_X-B-O.png,stimuli/mB-L_none_X-B-O.png,stimuli/mB-L_none_O-B-O.png,stimuli/mB-L_none_X-O-X.png,stimuli/mW-L_none_X-O-X.png,stimuli/m0_none_X-O-X.png,stimuli/m0_wW-L_X-O-X.png,1,20,48,25,,,,,,,,,448.2929052585969,454.95519093843177,455.69240294594783,455.69240294594783,455.69240294594783,456.60338472377043,456.60338472377043,right,0.6299535824218765,449.35365532070864,S5,K-M,2023-01-27_13h37.00.981,knowing_that_K_ONLY,2022.2.5,59.740965125269355,
Does Anna know that the book is here?,Does Anna think that the book is here?,Is the book here?,early,22,no_4,no_K,0,0,0,no,O-X-X,O-O-X,O-X-X,M,stimuli/blue-M.png,mB-M,m0,stimuli/m0_w0_O-X-X.png,stimuli/m0_wW-R_O-X-X.png,stimuli/m0_none_O-X-X.png,stimuli/mW-R_none_O-X-X.png,stimuli/mB-M_none_O-X-X.png,stimuli/mB-M_none_O-O-X.png,stimuli/mB-M_none_O-X-X.png,stimuli/mW-L_none_O-X-X.png,stimuli/m0_none_O-X-X.png,stimuli/m0_wW-L_O-X-X.png,1,21,49,21,,,,,,,,,457.2534953043796,463.92772414314095,464.66234502824955,464.66234502824955,464.66234502824955,465.5533202745719,465.5533202745719,right,0.39161299157422036,458.31032868789043,S5,K-M,2023-01-27_13h37.00.981,knowing_that_K_ONLY,2022.2.5,59.740965125269355,
Does Anna know that the book is here?,Does Anna think that the book is here?,Is the book here?,late,13,mem_4,mem_K,1,1,1,no,B-X-O,B-X-O,X-X-O,L,stimuli/blue-L.png,mB-M,m0,stimuli/m0_w0_B-X-O.png,stimuli/mW-R_w0_B-X-O.png,stimuli/mB-M_w0_B-X-O.png,stimuli/mB-M_w0_B-X-O.png,stimuli/mB-M_w0_X-X-O.png,stimuli/mW-L_w0_X-X-O.png,stimuli/m0_wW-R_X-X-O.png,stimuli/m0_none_X-X-O.png,stimuli/m0_none_X-X-O.png,stimuli/m0_wW-L_X-X-O.png,1,22,50,12,,,,,,,,,465.97023529582657,472.64341831824277,473.379992570146,473.379992570146,473.379992570146,474.2699306617724,474.2699306617724,left,0.2592889885418117,467.0353556514019,S5,K-M,2023-01-27_13h37.00.981,knowing_that_K_ONLY,2022.2.5,59.740965125269355,
Does Anna know that the book is here?,Does Anna think that the book is here?,Is the book here?,early,23,no_5,no_K,0,0,0,no,X-O-X,X-O-O,X-O-X,R,stimuli/blue-R.png,mB-R,m0,stimuli/m0_w0_X-O-X.png,stimuli/m0_wW-R_X-O-X.png,stimuli/m0_none_X-O-X.png,stimuli/mW-R_none_X-O-X.png,stimuli/mB-R_none_X-O-X.png,stimuli/mB-R_none_X-O-O.png,stimuli/mB-R_none_X-O-X.png,stimuli/mW-L_none_X-O-X.png,stimuli/m0_none_X-O-X.png,stimuli/m0_wW-L_X-O-X.png,1,23,51,22,,,,,,,,,474.55302032409236,481.2067293472355,481.9436628980329,481.9436628980329,481.9436628980329,482.85354143579025,482.85354143579025,right,1.211996915168129,475.5917543473188,S5,K-M,2023-01-27_13h37.00.981,knowing_that_K_ONLY,2022.2.5,59.740965125269355,
Does Anna know that the book is here?,Does Anna think that the book is here?,Is the book here?,late,17,mem_8,mem_K,1,1,1,switch,O-X-B,B-X-O,X-X-O,L,stimuli/blue-L.png,mB-M,m0,stimuli/m0_w0_O-X-B.png,stimuli/mW-R_w0_O-X-B.png,stimuli/mB-M_w0_O-X-B.png,stimuli/mB-M_w0_B-X-O.png,stimuli/mB-M_w0_X-X-O.png,stimuli/mW-L_w0_X-X-O.png,stimuli/m0_wW-R_X-X-O.png,stimuli/m0_none_X-X-O.png,stimuli/m0_none_X-X-O.png,stimuli/m0_wW-L_X-X-O.png,1,24,52,16,,,,,,,,,484.0866651353426,490.73899342422374,491.497663915623,491.497663915623,491.497663915623,492.38668226625305,492.38668226625305,left,0.5987378882709891,485.1410347551573,S5,K-M,2023-01-27_13h37.00.981,knowing_that_K_ONLY,2022.2.5,59.740965125269355,
Does Anna know that the book is here?,Does Anna think that the book is here?,Is the book here?,early,8,per_8,per_K,1,1,1,switch,O-X-B,B-X-O,B-X-X,L,stimuli/blue-L.png,mB-L,m0,stimuli/m0_w0_O-X-B.png,stimuli/m0_wW-R_O-X-B.png,stimuli/m0_none_O-X-B.png,stimuli/mW-R_none_O-X-B.png,stimuli/mB-L_none_O-X-B.png,stimuli/mB-L_none_B-X-O.png,stimuli/mB-L_none_B-X-X.png,stimuli/mW-L_none_B-X-X.png,stimuli/m0_none_B-X-X.png,stimuli/m0_wW-L_B-X-X.png,1,25,53,7,,,,,,,,,493.0034143017838,499.67614242609125,500.39353204274084,500.39353204274084,500.39353204274084,501.30351387884,501.30351387884,left,0.3208914230344817,494.0559649709612,S5,K-M,2023-01-27_13h37.00.981,knowing_that_K_ONLY,2022.2.5,59.740965125269355,
Does Anna know that the book is here?,Does Anna think that the book is here?,Is the book here?,late,4,per_4,per_K,1,1,1,no,O-X-B,O-O-B,O-X-B,R,stimuli/blue-R.png,mB-M,m0,stimuli/m0_w0_O-X-B.png,stimuli/mW-R_w0_O-X-B.png,stimuli/mB-M_w0_O-X-B.png,stimuli/mB-M_w0_O-O-B.png,stimuli/mB-M_w0_O-X-B.png,stimuli/mW-L_w0_O-X-B.png,stimuli/m0_wW-R_O-X-B.png,stimuli/m0_none_O-X-B.png,stimuli/m0_none_O-X-B.png,stimuli/m0_wW-L_O-X-B.png,1,26,54,3,,,,,,,,,501.65353065682575,508.3294600700028,509.0647892872803,509.0647892872803,509.0647892872803,509.95340567221865,509.95340567221865,left,0.43883545079734176,502.71318164933473,S5,K-M,2023-01-27_13h37.00.981,knowing_that_K_ONLY,2022.2.5,59.740965125269355,
Does Anna know that the book is here?,Does Anna think that the book is here?,Is the book here?,early,19,no_1,no_K,0,0,0,no,X-X-X,O-X-X,X-X-X,L,stimuli/blue-L.png,mB-L,m0,stimuli/m0_w0_X-X-X.png,stimuli/m0_wW-R_X-X-X.png,stimuli/m0_none_X-X-X.png,stimuli/mW-R_none_X-X-X.png,stimuli/mB-L_none_X-X-X.png,stimuli/mB-L_none_O-X-X.png,stimuli/mB-L_none_X-X-X.png,stimuli/mW-L_none_X-X-X.png,stimuli/m0_none_X-X-X.png,stimuli/m0_wW-L_X-X-X.png,1,27,55,18,,,,,,,,,510.42027639062144,517.0905285606859,517.8273110135924,517.8273110135924,517.8273110135924,518.7199117664713,518.7199117664713,left,0.6164125058567151,511.483312171069,S5,K-M,2023-01-27_13h37.00.981,knowing_that_K_ONLY,2022.2.5,59.740965125269355,
Does Anna know that the book is here?,Does Anna think that the book is here?,Is the book here?,early,20,no_2,no_K,0,0,0,no,X-O-X,O-O-X,X-O-X,L,stimuli/blue-L.png,mB-L,m0,stimuli/m0_w0_X-O-X.png,stimuli/m0_wW-R_X-O-X.png,stimuli/m0_none_X-O-X.png,stimuli/mW-R_none_X-O-X.png,stimuli/mB-L_none_X-O-X.png,stimuli/mB-L_none_O-O-X.png,stimuli/mB-L_none_X-O-X.png,stimuli/mW-L_none_X-O-X.png,stimuli/m0_none_X-O-X.png,stimuli/m0_wW-L_X-O-X.png,2,0,56,19,,,,,,,,,519.3534192100633,526.0264966883697,526.7448779057013,526.7448779057013,526.7448779057013,527.6532720900141,527.6532720900141,right,0.3557649082504213,520.4147537744138,S5,K-M,2023-01-27_13h37.00.981,knowing_that_K_ONLY,2022.2.5,59.740965125269355,
Does Anna know that the book is here?,Does Anna think that the book is here?,Is the book here?,early,1,per_1,per_K,1,1,1,no,B-X-X,B-O-X,B-X-X,L,stimuli/blue-L.png,mB-M,m0,stimuli/m0_w0_B-X-X.png,stimuli/m0_wW-R_B-X-X.png,stimuli/m0_none_B-X-X.png,stimuli/mW-R_none_B-X-X.png,stimuli/mB-M_none_B-X-X.png,stimuli/mB-M_none_B-O-X.png,stimuli/mB-M_none_B-X-X.png,stimuli/mW-L_none_B-X-X.png,stimuli/m0_none_B-X-X.png,stimuli/m0_wW-L_B-X-X.png,2,1,57,0,,,,,,,,,528.0367723155068,534.6896488559432,535.4278800531756,535.4278800531756,535.4278800531756,536.3366258370224,536.3366258370224,left,0.2816078651230782,529.0914746074704,S5,K-M,2023-01-27_13h37.00.981,knowing_that_K_ONLY,2022.2.5,59.740965125269355,
Does Anna know that the book is here?,Does Anna think that the book is here?,Is the book here?,early,2,per_2,per_K,1,1,1,no,X-X-B,O-X-B,X-X-B,R,stimuli/blue-R.png,mB-L,m0,stimuli/m0_w0_X-X-B.png,stimuli/m0_wW-R_X-X-B.png,stimuli/m0_none_X-X-B.png,stimuli/mW-R_none_X-X-B.png,stimuli/mB-L_none_X-X-B.png,stimuli/mB-L_none_O-X-B.png,stimuli/mB-L_none_X-X-B.png,stimuli/mW-L_none_X-X-B.png,stimuli/m0_none_X-X-B.png,stimuli/m0_wW-L_X-X-B.png,2,2,58,1,,,,,,,,,536.6366481008008,543.289202555432,544.029381024302,544.029381024302,544.029381024302,544.9366835172987,544.9366835172987,left,0.38383481244090945,537.6899715833133,S5,K-M,2023-01-27_13h37.00.981,knowing_that_K_ONLY,2022.2.5,59.740965125269355,
Does Anna know that the book is here?,Does Anna think that the book is here?,Is the book here?,late,13,mem_4,mem_K,1,1,1,no,B-X-O,B-X-O,X-X-O,L,stimuli/blue-L.png,mB-M,m0,stimuli/m0_w0_B-X-O.png,stimuli/mW-R_w0_B-X-O.png,stimuli/mB-M_w0_B-X-O.png,stimuli/mB-M_w0_B-X-O.png,stimuli/mB-M_w0_X-X-O.png,stimuli/mW-L_w0_X-X-O.png,stimuli/m0_wW-R_X-X-O.png,stimuli/m0_none_X-X-O.png,stimuli/m0_none_X-X-O.png,stimuli/m0_wW-L_X-X-O.png,2,3,59,12,,,,,,,,,545.3366839023074,552.0122392596677,552.7476313542575,552.7476313542575,552.7476313542575,553.6369499759749,553.6369499759749,right,0.29983939591329545,546.3939404244302,S5,K-M,2023-01-27_13h37.00.981,knowing_that_K_ONLY,2022.2.5,59.740965125269355,
Does Anna know that the book is here?,Does Anna think that the book is here?,Is the book here?,early,28,no_10,no_K,0,0,0,hide,O-B-O,O-B-O,X-O-X,L,stimuli/blue-L.png,mB-M,m0,stimuli/m0_w0_O-B-O.png,stimuli/m0_wW-R_O-B-O.png,stimuli/m0_none_O-B-O.png,stimuli/mW-R_none_O-B-O.png,stimuli/mB-M_none_O-B-O.png,stimuli/mB-M_none_O-B-O.png,stimuli/mB-M_none_X-O-X.png,stimuli/mW-L_none_X-O-X.png,stimuli/m0_none_X-O-X.png,stimuli/m0_wW-L_X-O-X.png,2,4,60,27,,,,,,,,,553.9535644694697,560.6266159627121,561.3641003316734,561.3641003316734,561.3641003316734,562.2535514448537,562.2535514448537,right,0.3080878716427833,555.0168902553851,S5,K-M,2023-01-27_13h37.00.981,knowing_that_K_ONLY,2022.2.5,59.740965125269355,
Does Anna know that the book is here?,Does Anna think that the book is here?,Is the book here?,late,6,per_6,per_K,1,1,1,no,X-B-X,O-B-X,X-B-X,M,stimuli/blue-M.png,mB-L,m0,stimuli/m0_w0_X-B-X.png,stimuli/mW-R_w0_X-B-X.png,stimuli/mB-L_w0_X-B-X.png,stimuli/mB-L_w0_O-B-X.png,stimuli/mB-L_w0_X-B-X.png,stimuli/mW-L_w0_X-B-X.png,stimuli/m0_wW-R_X-B-X.png,stimuli/m0_none_X-B-X.png,stimuli/m0_none_X-B-X.png,stimuli/m0_wW-L_X-B-X.png,2,5,61,5,,,,,,,,,562.5868085341062,569.2629387696506,569.9983716061106,569.9983716061106,569.9983716061106,570.8869485323085,570.8869485323085,left,0.2979784202761948,563.6514919565525,S5,K-M,2023-01-27_13h37.00.981,knowing_that_K_ONLY,2022.2.5,59.740965125269355,
Does Anna know that the book is here?,Does Anna think that the book is here?,Is the book here?,late,12,mem_3,mem_K,1,1,1,no,X-O-B,X-O-B,X-O-X,R,stimuli/blue-R.png,mB-M,m0,stimuli/m0_w0_X-O-B.png,stimuli/mW-R_w0_X-O-B.png,stimuli/mB-M_w0_X-O-B.png,stimuli/mB-M_w0_X-O-B.png,stimuli/mB-M_w0_X-O-X.png,stimuli/mW-L_w0_X-O-X.png,stimuli/m0_wW-R_X-O-X.png,stimuli/m0_none_X-O-X.png,stimuli/m0_none_X-O-X.png,stimuli/m0_wW-L_X-O-X.png,2,6,62,11,,,,,,,,,571.2034558777232,577.8751818148885,578.6119055608287,578.6119055608287,578.6119055608287,579.5035230538342,579.5035230538342,right,1.2983187917852774,572.2572464488912,S5,K-M,2023-01-27_13h37.00.981,knowing_that_K_ONLY,2022.2.5,59.740965125269355,
Does Anna know that the book is here?,Does Anna think that the book is here?,Is the book here?,late,11,mem_2,mem_K,1,1,1,no,O-B-O,O-B-X,O-X-X,M,stimuli/blue-M.png,mB-L,m0,stimuli/m0_w0_O-B-O.png,stimuli/mW-R_w0_O-B-O.png,stimuli/mB-L_w0_O-B-O.png,stimuli/mB-L_w0_O-B-X.png,stimuli/mB-L_w0_O-X-X.png,stimuli/mW-L_w0_O-X-X.png,stimuli/m0_wW-R_O-X-X.png,stimuli/m0_none_O-X-X.png,stimuli/m0_none_O-X-X.png,stimuli/m0_wW-L_O-X-X.png,2,7,63,10,,,,,,,,,580.8201606450602,587.4929384938441,588.2318250907119,588.2318250907119,588.2318250907119,589.120451099705,589.120451099705,left,0.28190043696668,581.8732152951416,S5,K-M,2023-01-27_13h37.00.981,knowing_that_K_ONLY,2022.2.5,59.740965125269355,
Does Anna know that the book is here?,Does Anna think that the book is here?,Is the book here?,early,23,no_5,no_K,0,0,0,no,X-O-X,X-O-O,X-O-X,R,stimuli/blue-R.png,mB-R,m0,stimuli/m0_w0_X-O-X.png,stimuli/m0_wW-R_X-O-X.png,stimuli/m0_none_X-O-X.png,stimuli/mW-R_none_X-O-X.png,stimuli/mB-R_none_X-O-X.png,stimuli/mB-R_none_X-O-O.png,stimuli/mB-R_none_X-O-X.png,stimuli/mW-L_none_X-O-X.png,stimuli/m0_none_X-O-X.png,stimuli/m0_wW-L_X-O-X.png,2,8,64,22,,,,,,,,,589.4204223558772,596.0947252999758,596.8326472435147,596.8326472435147,596.8326472435147,597.7204231257783,597.7204231257783,right,1.2321490910835564,590.4771322302986,S5,K-M,2023-01-27_13h37.00.981,knowing_that_K_ONLY,2022.2.5,59.740965125269355,
Does Anna know that the book is here?,Does Anna think that the book is here?,Is the book here?,early,27,no_9,no_K,0,0,0,hide,X-X-B,O-O-B,X-X-O,L,stimuli/blue-L.png,mB-M,m0,stimuli/m0_w0_X-X-B.png,stimuli/m0_wW-R_X-X-B.png,stimuli/m0_none_X-X-B.png,stimuli/mW-R_none_X-X-B.png,stimuli/mB-M_none_X-X-B.png,stimuli/mB-M_none_O-O-B.png,stimuli/mB-M_none_X-X-O.png,stimuli/mW-L_none_X-X-O.png,stimuli/m0_none_X-X-O.png,stimuli/m0_wW-L_X-X-O.png,2,9,65,26,,,,,,,,,598.9703421230661,605.6455609585391,606.3845922374167,606.3845922374167,606.3845922374167,607.2700695692329,607.2700695692329,right,0.3557770986808464,600.0321845179424,S5,K-M,2023-01-27_13h37.00.981,knowing_that_K_ONLY,2022.2.5,59.740965125269355,
Does Anna know that the book is here?,Does Anna think that the book is here?,Is the book here?,early,26,no_8,no_K,0,0,0,hide,X-B-O,O-B-O,X-O-X,R,stimuli/blue-R.png,mB-L,m0,stimuli/m0_w0_X-B-O.png,stimuli/m0_wW-R_X-B-O.png,stimuli/m0_none_X-B-O.png,stimuli/mW-R_none_X-B-O.png,stimuli/mB-L_none_X-B-O.png,stimuli/mB-L_none_O-B-O.png,stimuli/mB-L_none_X-O-X.png,stimuli/mW-L_none_X-O-X.png,stimuli/m0_none_X-O-X.png,stimuli/m0_wW-L_X-O-X.png,2,10,66,25,,,,,,,,,607.653688812512,614.3287543043261,615.044221351156,615.044221351156,615.044221351156,615.9535776223056,615.9535776223056,right,0.34410052676685154,608.6934628776507,S5,K-M,2023-01-27_13h37.00.981,knowing_that_K_ONLY,2022.2.5,59.740965125269355,
Does Anna know that the book is here?,Does Anna think that the book is here?,Is the book here?,late,10,mem_1,mem_K,1,1,1,no,O-X-B,X-X-B,X-X-X,R,stimuli/blue-R.png,mB-M,m0,stimuli/m0_w0_O-X-B.png,stimuli/mW-R_w0_O-X-B.png,stimuli/mB-M_w0_O-X-B.png,stimuli/mB-M_w0_X-X-B.png,stimuli/mB-M_w0_X-X-X.png,stimuli/mW-L_w0_X-X-X.png,stimuli/m0_wW-R_X-X-X.png,stimuli/m0_none_X-X-X.png,stimuli/m0_none_X-X-X.png,stimuli/m0_wW-L_X-X-X.png,2,11,67,9,,,,,,,,,616.3204073422821,622.9697771897772,623.7268427059753,623.7268427059753,623.7268427059753,624.6204090745887,624.6204090745887,left,0.4291475339559838,617.3733522777911,S5,K-M,2023-01-27_13h37.00.981,knowing_that_K_ONLY,2022.2.5,59.740965125269355,
Does Anna know that the book is here?,Does Anna think that the book is here?,Is the book here?,late,16,mem_7,mem_K,1,1,1,switch,B-X-O,O-X-B,O-X-X,R,stimuli/blue-R.png,mB-M,m0,stimuli/m0_w0_B-X-O.png,stimuli/mW-R_w0_B-X-O.png,stimuli/mB-M_w0_B-X-O.png,stimuli/mB-M_w0_O-X-B.png,stimuli/mB-M_w0_O-X-X.png,stimuli/mW-L_w0_O-X-X.png,stimuli/m0_wW-R_O-X-X.png,stimuli/m0_none_O-X-X.png,stimuli/m0_none_O-X-X.png,stimuli/m0_wW-L_O-X-X.png,2,12,68,15,,,,,,,,,625.0705602046801,631.7211657837033,632.4776230582502,632.4776230582502,632.4776230582502,633.3704127637902,633.3704127637902,left,0.31863714335486293,626.1252602511086,S5,K-M,2023-01-27_13h37.00.981,knowing_that_K_ONLY,2022.2.5,59.740965125269355,
Does Anna know that the book is here?,Does Anna think that the book is here?,Is the book here?,early,24,no_6,no_K,0,0,0,no,X-X-X,X-X-O,X-X-X,R,stimuli/blue-R.png,mB-R,m0,stimuli/m0_w0_X-X-X.png,stimuli/m0_wW-R_X-X-X.png,stimuli/m0_none_X-X-X.png,stimuli/mW-R_none_X-X-X.png,stimuli/mB-R_none_X-X-X.png,stimuli/mB-R_none_X-X-O.png,stimuli/mB-R_none_X-X-X.png,stimuli/mW-L_none_X-X-X.png,stimuli/m0_none_X-X-X.png,stimuli/m0_wW-L_X-X-X.png,2,13,69,23,,,,,,,,,633.7197754253866,640.3890510724159,641.1099804246332,641.1099804246332,641.1099804246332,642.0202320556855,642.0202320556855,right,0.43662255455274135,634.775229357765,S5,K-M,2023-01-27_13h37.00.981,knowing_that_K_ONLY,2022.2.5,59.740965125269355,
Does Anna know that the book is here?,Does Anna think that the book is here?,Is the book here?,early,22,no_4,no_K,0,0,0,no,O-X-X,O-O-X,O-X-X,M,stimuli/blue-M.png,mB-M,m0,stimuli/m0_w0_O-X-X.png,stimuli/m0_wW-R_O-X-X.png,stimuli/m0_none_O-X-X.png,stimuli/mW-R_none_O-X-X.png,stimuli/mB-M_none_O-X-X.png,stimuli/mB-M_none_O-O-X.png,stimuli/mB-M_none_O-X-X.png,stimuli/mW-L_none_O-X-X.png,stimuli/m0_none_O-X-X.png,stimuli/m0_wW-L_O-X-X.png,2,14,70,21,,,,,,,,,642.4869548842544,649.1616899494547,649.901256006211,649.901256006211,649.901256006211,650.7869649574859,650.7869649574859,right,0.550423096283339,643.5464159615804,S5,K-M,2023-01-27_13h37.00.981,knowing_that_K_ONLY,2022.2.5,59.740965125269355,
Does Anna know that the book is here?,Does Anna think that the book is here?,Is the book here?,late,14,mem_5,mem_K,1,1,1,no,O-B-X,O-B-X,O-X-X,M,stimuli/blue-M.png,mB-L,m0,stimuli/m0_w0_O-B-X.png,stimuli/mW-R_w0_O-B-X.png,stimuli/mB-L_w0_O-B-X.png,stimuli/mB-L_w0_O-B-X.png,stimuli/mB-L_w0_O-X-X.png,stimuli/mW-L_w0_O-X-X.png,stimuli/m0_wW-R_O-X-X.png,stimuli/m0_none_O-X-X.png,stimuli/m0_none_O-X-X.png,stimuli/m0_wW-L_O-X-X.png,2,15,71,13,,,,,,,,,651.353613616433,658.0292016955791,658.7658779628109,658.7658779628109,658.7658779628109,659.6538036598358,659.6538036598358,left,0.6117935904767364,652.4152917603496,S5,K-M,2023-01-27_13h37.00.981,knowing_that_K_ONLY,2022.2.5,59.740965125269355,
Does Anna know that the book is here?,Does Anna think that the book is here?,Is the book here?,early,21,no_3,no_K,0,0,0,no,X-X-O,X-O-O,X-X-O,M,stimuli/blue-M.png,mB-M,m0,stimuli/m0_w0_X-X-O.png,stimuli/m0_wW-R_X-X-O.png,stimuli/m0_none_X-X-O.png,stimuli/mW-R_none_X-X-O.png,stimuli/mB-M_none_X-X-O.png,stimuli/mB-M_none_X-O-O.png,stimuli/mB-M_none_X-X-O.png,stimuli/mW-L_none_X-X-O.png,stimuli/m0_none_X-X-O.png,stimuli/m0_wW-L_X-X-O.png,2,16,72,20,,,,,,,,,660.2870332883904,666.9384787285235,667.6766338956077,667.6766338956077,667.6766338956077,668.5869779178174,668.5869779178174,right,0.28564484464004636,661.3409938848345,S5,K-M,2023-01-27_13h37.00.981,knowing_that_K_ONLY,2022.2.5,59.740965125269355,
Does Anna know that the book is here?,Does Anna think that the book is here?,Is the book here?,early,7,per_7,per_K,1,1,1,switch,B-X-O,O-X-B,X-X-B,R,stimuli/blue-R.png,mB-R,m0,stimuli/m0_w0_B-X-O.png,stimuli/m0_wW-R_B-X-O.png,stimuli/m0_none_B-X-O.png,stimuli/mW-R_none_B-X-O.png,stimuli/mB-R_none_B-X-O.png,stimuli/mB-R_none_O-X-B.png,stimuli/mB-R_none_X-X-B.png,stimuli/mW-L_none_X-X-B.png,stimuli/m0_none_X-X-B.png,stimuli/m0_wW-L_X-X-B.png,2,17,73,6,,,,,,,,,668.9037852137117,675.5556473763427,676.3159754547523,676.3159754547523,676.3159754547523,677.203971086652,677.203971086652,left,0.2781310067512095,669.9567801944213,S5,K-M,2023-01-27_13h37.00.981,knowing_that_K_ONLY,2022.2.5,59.740965125269355,
Does Anna know that the book is here?,Does Anna think that the book is here?,Is the book here?,late,5,per_5,per_K,1,1,1,no,X-B-O,O-B-O,X-B-O,M,stimuli/blue-M.png,mB-L,m0,stimuli/m0_w0_X-B-O.png,stimuli/mW-R_w0_X-B-O.png,stimuli/mB-L_w0_X-B-O.png,stimuli/mB-L_w0_O-B-O.png,stimuli/mB-L_w0_X-B-O.png,stimuli/mW-L_w0_X-B-O.png,stimuli/m0_wW-R_X-B-O.png,stimuli/m0_none_X-B-O.png,stimuli/m0_none_X-B-O.png,stimuli/m0_wW-L_X-B-O.png,2,18,74,4,,,,,,,,,677.5039118665736,684.1550063486211,684.9183490087744,684.9183490087744,684.9183490087744,685.8036842250731,685.8036842250731,left,0.3652712507173419,678.5603849887848,S5,K-M,2023-01-27_13h37.00.981,knowing_that_K_ONLY,2022.2.5,59.740965125269355,
Does Anna know that the book is here?,Does Anna think that the book is here?,Is the book here?,early,8,per_8,per_K,1,1,1,switch,O-X-B,B-X-O,B-X-X,L,stimuli/blue-L.png,mB-L,m0,stimuli/m0_w0_O-X-B.png,stimuli/m0_wW-R_O-X-B.png,stimuli/m0_none_O-X-B.png,stimuli/mW-R_none_O-X-B.png,stimuli/mB-L_none_O-X-B.png,stimuli/mB-L_none_B-X-O.png,stimuli/mB-L_none_B-X-X.png,stimuli/mW-L_none_B-X-X.png,stimuli/m0_none_B-X-X.png,stimuli/m0_wW-L_B-X-X.png,2,19,75,7,,,,,,,,,686.1871757889166,692.8627885698806,693.5985983493738,693.5985983493738,693.5985983493738,694.4868836660171,694.4868836660171,left,0.2585213080747053,687.2503216045443,S5,K-M,2023-01-27_13h37.00.981,knowing_that_K_ONLY,2022.2.5,59.740965125269355,
Does Anna know that the book is here?,Does Anna think that the book is here?,Is the book here?,late,18,mem_9,mem_K,1,1,1,switch,X-O-B,X-B-O,X-X-O,M,stimuli/blue-M.png,mB-L,m0,stimuli/m0_w0_X-O-B.png,stimuli/mW-R_w0_X-O-B.png,stimuli/mB-L_w0_X-O-B.png,stimuli/mB-L_w0_X-B-O.png,stimuli/mB-L_w0_X-X-O.png,stimuli/mW-L_w0_X-X-O.png,stimuli/m0_wW-R_X-X-O.png,stimuli/m0_none_X-X-O.png,stimuli/m0_none_X-X-O.png,stimuli/m0_wW-L_X-X-O.png,2,20,76,17,,,,,,,,,694.7704157151747,701.4436106072972,702.1817292028572,702.1817292028572,702.1817292028572,703.0704921944998,703.0704921944998,left,0.3320049865869805,695.8314990911167,S5,K-M,2023-01-27_13h37.00.981,knowing_that_K_ONLY,2022.2.5,59.740965125269355,
Does Anna know that the book is here?,Does Anna think that the book is here?,Is the book here?,late,17,mem_8,mem_K,1,1,1,switch,O-X-B,B-X-O,X-X-O,L,stimuli/blue-L.png,mB-M,m0,stimuli/m0_w0_O-X-B.png,stimuli/mW-R_w0_O-X-B.png,stimuli/mB-M_w0_O-X-B.png,stimuli/mB-M_w0_B-X-O.png,stimuli/mB-M_w0_X-X-O.png,stimuli/mW-L_w0_X-X-O.png,stimuli/m0_wW-R_X-X-O.png,stimuli/m0_none_X-X-O.png,stimuli/m0_none_X-X-O.png,stimuli/m0_wW-L_X-X-O.png,2,21,77,16,,,,,,,,,703.4205416943878,710.0723220524378,710.8099033036269,710.8099033036269,710.8099033036269,711.7204179929104,711.7204179929104,left,0.8331425525248051,704.4728700473206,S5,K-M,2023-01-27_13h37.00.981,knowing_that_K_ONLY,2022.2.5,59.740965125269355,
Does Anna know that the book is here?,Does Anna think that the book is here?,Is the book here?,early,9,per_9,per_K,1,1,1,switch,X-O-B,X-B-O,X-B-X,M,stimuli/blue-M.png,mB-R,m0,stimuli/m0_w0_X-O-B.png,stimuli/m0_wW-R_X-O-B.png,stimuli/m0_none_X-O-B.png,stimuli/mW-R_none_X-O-B.png,stimuli/mB-R_none_X-O-B.png,stimuli/mB-R_none_X-B-O.png,stimuli/mB-R_none_X-B-X.png,stimuli/mW-L_none_X-B-X.png,stimuli/m0_none_X-B-X.png,stimuli/m0_wW-L_X-B-X.png,2,22,78,8,,,,,,,,,712.5703648359049,719.2412993530743,719.9808756755665,719.9808756755665,719.9808756755665,720.8700332543813,720.8700332543813,left,0.427627892117016,713.6240219532046,S5,K-M,2023-01-27_13h37.00.981,knowing_that_K_ONLY,2022.2.5,59.740965125269355,
Does Anna know that the book is here?,Does Anna think that the book is here?,Is the book here?,late,15,mem_6,mem_K,1,1,1,no,X-B-O,X-B-X,X-X-X,M,stimuli/blue-M.png,mB-R,m0,stimuli/m0_w0_X-B-O.png,stimuli/mW-R_w0_X-B-O.png,stimuli/mB-R_w0_X-B-O.png,stimuli/mB-R_w0_X-B-X.png,stimuli/mB-R_w0_X-X-X.png,stimuli/mW-L_w0_X-X-X.png,stimuli/m0_wW-R_X-X-X.png,stimuli/m0_none_X-X-X.png,stimuli/m0_none_X-X-X.png,stimuli/m0_wW-L_X-X-X.png,2,23,79,14,,,,,,,,,721.3202591314912,727.9716157093644,728.7334040809656,728.7334040809656,728.7334040809656,729.6202021569479,729.6202021569479,left,0.316529149771668,722.3722329976736,S5,K-M,2023-01-27_13h37.00.981,knowing_that_K_ONLY,2022.2.5,59.740965125269355,
Does Anna know that the book is here?,Does Anna think that the book is here?,Is the book here?,late,4,per_4,per_K,1,1,1,no,O-X-B,O-O-B,O-X-B,R,stimuli/blue-R.png,mB-M,m0,stimuli/m0_w0_O-X-B.png,stimuli/mW-R_w0_O-X-B.png,stimuli/mB-M_w0_O-X-B.png,stimuli/mB-M_w0_O-O-B.png,stimuli/mB-M_w0_O-X-B.png,stimuli/mW-L_w0_O-X-B.png,stimuli/m0_wW-R_O-X-B.png,stimuli/m0_none_O-X-B.png,stimuli/m0_none_O-X-B.png,stimuli/m0_wW-L_O-X-B.png,2,24,80,3,,,,,,,,,729.9537348155864,736.6277788720326,737.3672361767385,737.3672361767385,737.3672361767385,738.253773119417,738.253773119417,left,0.2921654776437208,731.0138737488305,S5,K-M,2023-01-27_13h37.00.981,knowing_that_K_ONLY,2022.2.5,59.740965125269355,
Does Anna know that the book is here?,Does Anna think that the book is here?,Is the book here?,early,19,no_1,no_K,0,0,0,no,X-X-X,O-X-X,X-X-X,L,stimuli/blue-L.png,mB-L,m0,stimuli/m0_w0_X-X-X.png,stimuli/m0_wW-R_X-X-X.png,stimuli/m0_none_X-X-X.png,stimuli/mW-R_none_X-X-X.png,stimuli/mB-L_none_X-X-X.png,stimuli/mB-L_none_O-X-X.png,stimuli/mB-L_none_X-X-X.png,stimuli/mW-L_none_X-X-X.png,stimuli/m0_none_X-X-X.png,stimuli/m0_wW-L_X-X-X.png,2,25,81,18,,,,,,,,,738.5704264299711,745.2222783269826,745.9826266159071,745.9826266159071,745.9826266159071,746.8705988293514,746.8705988293514,right,0.858922567917034,739.6323628199752,S5,K-M,2023-01-27_13h37.00.981,knowing_that_K_ONLY,2022.2.5,59.740965125269355,
Does Anna know that the book is here?,Does Anna think that the book is here?,Is the book here?,early,25,no_7,no_K,0,0,0,hide,B-X-X,B-O-O,O-X-X,M,stimuli/blue-M.png,mB-L,m0,stimuli/m0_w0_B-X-X.png,stimuli/m0_wW-R_B-X-X.png,stimuli/m0_none_B-X-X.png,stimuli/mW-R_none_B-X-X.png,stimuli/mB-L_none_B-X-X.png,stimuli/mB-L_none_B-O-O.png,stimuli/mB-L_none_O-X-X.png,stimuli/mW-L_none_O-X-X.png,stimuli/m0_none_O-X-X.png,stimuli/m0_wW-L_O-X-X.png,2,26,82,24,,,,,,,,,747.7538019916974,754.4152407527436,755.1649358298164,755.1649358298164,755.1649358298164,756.0539580300683,756.0539580300683,right,0.27461501059588045,748.8089578985237,S5,K-M,2023-01-27_13h37.00.981,knowing_that_K_ONLY,2022.2.5,59.740965125269355,
Does Anna know that the book is here?,Does Anna think that the book is here?,Is the book here?,early,3,per_3,per_K,1,1,1,no,O-B-X,O-B-O,O-B-X,M,stimuli/blue-M.png,mB-R,m0,stimuli/m0_w0_O-B-X.png,stimuli/m0_wW-R_O-B-X.png,stimuli/m0_none_O-B-X.png,stimuli/mW-R_none_O-B-X.png,stimuli/mB-R_none_O-B-X.png,stimuli/mB-R_none_O-B-O.png,stimuli/mB-R_none_O-B-X.png,stimuli/mW-L_none_O-B-X.png,stimuli/m0_none_O-B-X.png,stimuli/m0_wW-L_O-B-X.png,2,27,83,2,,,,,,,,,756.353777546552,763.0062325523468,763.7437496430939,763.7437496430939,763.7437496430939,764.653669243562,764.653669243562,left,0.31558149901684374,757.4084974826546,S5,K-M,2023-01-27_13h37.00.981,knowing_that_K_ONLY,2022.2.5,59.740965125269355,
