K_text,B_text,T_text,Anna_exit,trial_num,trial_code,cond,K_hit,B_hit,T_hit,book_move,start_shelf,mid_shelf,mid_shelf_2,end_shelf,rectangle,rectangle_B,rectangle_T,rectangle_path,rectangle_path_B,rectangle_path_T,Todd_mid,Todd_final,frame_1,frame_2,frame_3,frame_4,frame_5,frame_6,frame_7,frame_8,frame_9,frame_10,trials.thisRepN,trials.thisTrialN,trials.thisN,trials.thisIndex,frames.thisRepN,frames.thisTrialN,frames.thisN,frames.thisIndex,sessionInst.started,startSession.started,startSession.keys,startSession.rt,crossText.started,movingImage.started,staticImage.started,promptText3.started,rectImage.started,respText.started,keyResp.started,keyResp.keys,keyResp.rt,crossText.stopped,subject,session,date,expName,psychopyVersion,frameRate,
,,,,,,,,,,,,,,,,,,,,,,,,,,,,,,,,,,,,,,,,,14.124778405646794,14.124778405646794,left,11.543933716835454,,,,,,,,,,,S5,K-A,2023-01-27_13h50.07.847,knowing_that_K_ONLY,2022.2.5,60.01921581181179,
Does Anna know that the book is here?,Does Anna think that the book is here?,Is the book here?,early,31,per_3,per_K,1,0,1,no,O-B-X,O-B-O,none,O-B-X,M,R,M,stimuli/blue-M.png,stimuli/blue-R.png,stimuli/blue-M.png,mB-R,m0,stimuli/m0_w0_O-B-X.png,stimuli/m0_wW-R_O-B-X.png,stimuli/m0_none_O-B-X.png,stimuli/mW-R_none_O-B-X.png,stimuli/mB-R_none_O-B-X.png,stimuli/mB-R_none_O-B-O.png,stimuli/mB-R_none_O-B-X.png,stimuli/mW-L_none_O-B-X.png,stimuli/m0_none_O-B-X.png,stimuli/m0_wW-L_O-B-X.png,0,0,0,2,,,,,,,,,25.733714938745834,32.37046986678615,33.12254401575774,33.12254401575774,33.12254401575774,33.99466377007775,33.99466377007775,left,0.4907318183686584,,S5,K-A,2023-01-27_13h50.07.847,knowing_that_K_ONLY,2022.2.5,60.01921581181179,
Does Anna know that the book is here?,Does Anna think that the book is here?,Is the book here?,early,47,mem_7,mem_K,0,1,0,switch,X-O-O,B-O-O,X-O-B,X-O-X,R,L,L,stimuli/blue-R.png,stimuli/blue-L.png,stimuli/blue-L.png,mB-M,m0,stimuli/m0_w0_X-O-O.png,stimuli/m0_wW-R_X-O-O.png,stimuli/m0_none_X-O-O.png,stimuli/mW-R_none_X-O-O.png,stimuli/mB-M_none_B-O-O.png,stimuli/mB-M_none_X-O-B.png,stimuli/mB-M_none_X-O-X.png,stimuli/mW-L_none_X-O-X.png,stimuli/m0_none_X-O-X.png,stimuli/m0_wW-L_X-O-X.png,0,1,1,18,,,,,,,,,34.51136988482904,41.185131314210594,41.92761699517723,41.92761699517723,41.92761699517723,42.81128500041086,42.81128500041086,right,0.5453064308967441,35.562610075459816,S5,K-A,2023-01-27_13h50.07.847,knowing_that_K_ONLY,2022.2.5,60.01921581181179,
Does Anna know that the book is here?,Does Anna think that the book is here?,Is the book here?,late,50,mem_10,mem_K,1,1,1,show,O-O-X,O-O-B,O-B-X,O-X-X,M,M,M,stimuli/blue-M.png,stimuli/blue-M.png,stimuli/blue-M.png,mB-L,m0,stimuli/m0_w0_O-O-X.png,stimuli/mW-R_w0_O-O-X.png,stimuli/mB-L_w0_O-O-B.png,stimuli/mB-L_w0_O-B-X.png,stimuli/mB-L_w0_O-X-X.png,stimuli/mW-L_w0_O-X-X.png,stimuli/m0_wW-R_O-X-X.png,stimuli/m0_none_O-X-X.png,stimuli/m0_none_O-X-X.png,stimuli/m0_wW-L_O-X-X.png,0,2,2,21,,,,,,,,,43.37786468677223,50.02991836867295,50.79139524104539,50.79139524104539,50.79139524104539,51.67800211859867,51.67800211859867,left,0.33554549945984036,44.43060655426234,S5,K-A,2023-01-27_13h50.07.847,knowing_that_K_ONLY,2022.2.5,60.01921581181179,
Does Anna know that the book is here?,Does Anna think that the book is here?,Is the book here?,late,40,per_12,per_K,1,1,1,show,O-X-X,O-B-X,none,O-B-X,M,M,M,stimuli/blue-M.png,stimuli/blue-M.png,stimuli/blue-M.png,mB-M,m0,stimuli/m0_w0_O-X-X.png,stimuli/mW-R_w0_O-X-X.png,stimuli/mB-M_w0_O-X-X.png,stimuli/mB-M_w0_O-B-X.png,stimuli/mB-M_w0_O-B-X.png,stimuli/mW-L_w0_O-B-X.png,stimuli/m0_wW-R_O-B-X.png,stimuli/m0_none_O-B-X.png,stimuli/m0_none_O-B-X.png,stimuli/m0_wW-L_O-B-X.png,0,3,3,11,,,,,,,,,52.04467432445381,58.697044959291816,59.459957423154265,59.459957423154265,59.459957423154265,60.344438662868924,60.344438662868924,left,0.2929708278970793,53.10066624288447,S5,K-A,2023-01-27_13h50.07.847,knowing_that_K_ONLY,2022.2.5,60.01921581181179,
Does Anna know that the book is here?,Does Anna think that the book is here?,Is the book here?,late,33,per_5,per_K,1,0,1,no,X-B-O,O-B-O,none,X-B-O,M,R,M,stimuli/blue-M.png,stimuli/blue-R.png,stimuli/blue-M.png,mB-L,m0,stimuli/m0_w0_X-B-O.png,stimuli/mW-R_w0_X-B-O.png,stimuli/mB-L_w0_X-B-O.png,stimuli/mB-L_w0_O-B-O.png,stimuli/mB-L_w0_X-B-O.png,stimuli/mW-L_w0_X-B-O.png,stimuli/m0_wW-R_X-B-O.png,stimuli/m0_none_X-B-O.png,stimuli/m0_none_X-B-O.png,stimuli/m0_wW-L_X-B-O.png,0,4,4,4,,,,,,,,,60.66127226455137,67.33674036362208,68.07416153443046,68.07416153443046,68.07416153443046,68.96144273900427,68.96144273900427,left,0.4836260414449498,61.716419830569066,S5,K-A,2023-01-27_13h50.07.847,knowing_that_K_ONLY,2022.2.5,60.01921581181179,
Does Anna know that the book is here?,Does Anna think that the book is here?,Is the book here?,early,46,mem_6,mem_K,0,1,0,switch,O-X-O,O-B-O,O-X-B,O-X-X,R,M,M,stimuli/blue-R.png,stimuli/blue-M.png,stimuli/blue-M.png,mB-L,m0,stimuli/m0_w0_O-X-O.png,stimuli/m0_wW-R_O-X-O.png,stimuli/m0_none_O-X-O.png,stimuli/mW-R_none_O-X-O.png,stimuli/mB-L_none_O-B-O.png,stimuli/mB-L_none_O-X-B.png,stimuli/mB-L_none_O-X-X.png,stimuli/mW-L_none_O-X-X.png,stimuli/m0_none_O-X-X.png,stimuli/m0_wW-L_O-X-X.png,0,5,5,17,,,,,,,,,69.46141354599968,76.135434825439,76.87230774469208,76.87230774469208,76.87230774469208,77.7613738947548,77.7613738947548,right,0.579630060470663,70.52712481981143,S5,K-A,2023-01-27_13h50.07.847,knowing_that_K_ONLY,2022.2.5,60.01921581181179,
Does Anna know that the book is here?,Does Anna think that the book is here?,Is the book here?,early,35,per_7,per_K,1,0,1,switch,B-X-O,O-X-B,none,X-X-B,R,L,R,stimuli/blue-R.png,stimuli/blue-L.png,stimuli/blue-R.png,mB-R,m0,stimuli/m0_w0_B-X-O.png,stimuli/m0_wW-R_B-X-O.png,stimuli/m0_none_B-X-O.png,stimuli/mW-R_none_B-X-O.png,stimuli/mB-R_none_B-X-O.png,stimuli/mB-R_none_O-X-B.png,stimuli/mB-R_none_X-X-B.png,stimuli/mW-L_none_X-X-B.png,stimuli/m0_none_X-X-B.png,stimuli/m0_wW-L_X-X-B.png,0,6,6,6,,,,,,,,,78.3612483968027,85.03742194082588,85.77482771303039,85.77482771303039,85.77482771303039,86.66152601933572,86.66152601933572,left,0.27993886510375887,79.42248415399808,S5,K-A,2023-01-27_13h50.07.847,knowing_that_K_ONLY,2022.2.5,60.01921581181179,
Does Anna know that the book is here?,Does Anna think that the book is here?,Is the book here?,early,45,mem_5,mem_K,0,1,0,switch,O-X-O,O-B-O,B-X-O,X-X-O,L,M,M,stimuli/blue-L.png,stimuli/blue-M.png,stimuli/blue-M.png,mB-R,m0,stimuli/m0_w0_O-X-O.png,stimuli/m0_wW-R_O-X-O.png,stimuli/m0_none_O-X-O.png,stimuli/mW-R_none_O-X-O.png,stimuli/mB-R_none_O-B-O.png,stimuli/mB-R_none_B-X-O.png,stimuli/mB-R_none_X-X-O.png,stimuli/mW-L_none_X-X-O.png,stimuli/m0_none_X-X-O.png,stimuli/m0_wW-L_X-X-O.png,0,7,7,16,,,,,,,,,86.96129581145942,93.63520063960459,94.37410712626297,94.37410712626297,94.37410712626297,95.26143452653196,95.26143452653196,right,0.43176092742942274,88.01506905921269,S5,K-A,2023-01-27_13h50.07.847,knowing_that_K_ONLY,2022.2.5,60.01921581181179,
Does Anna know that the book is here?,Does Anna think that the book is here?,Is the book here?,early,43,mem_3,mem_K,0,1,0,switch,O-O-X,O-O-B,B-O-X,X-O-X,L,R,R,stimuli/blue-L.png,stimuli/blue-R.png,stimuli/blue-R.png,mB-M,m0,stimuli/m0_w0_O-O-X.png,stimuli/m0_wW-R_O-O-X.png,stimuli/m0_none_O-O-X.png,stimuli/mW-R_none_O-O-X.png,stimuli/mB-M_none_O-O-B.png,stimuli/mB-M_none_B-O-X.png,stimuli/mB-M_none_X-O-X.png,stimuli/mW-L_none_X-O-X.png,stimuli/m0_none_X-O-X.png,stimuli/m0_wW-L_X-O-X.png,0,8,8,14,,,,,,,,,95.71137264370918,102.38702456257306,103.1255547478795,103.1255547478795,103.1255547478795,104.01141608029138,104.01141608029138,left,0.9616135313408449,96.76317840931006,S5,K-A,2023-01-27_13h50.07.847,knowing_that_K_ONLY,2022.2.5,60.01921581181179,
Does Anna know that the book is here?,Does Anna think that the book is here?,Is the book here?,late,34,per_6,per_K,1,0,1,no,X-B-X,O-B-X,none,X-B-X,M,R,M,stimuli/blue-M.png,stimuli/blue-R.png,stimuli/blue-M.png,mB-L,m0,stimuli/m0_w0_X-B-X.png,stimuli/mW-R_w0_X-B-X.png,stimuli/mB-L_w0_X-B-X.png,stimuli/mB-L_w0_O-B-X.png,stimuli/mB-L_w0_X-B-X.png,stimuli/mW-L_w0_X-B-X.png,stimuli/m0_wW-R_X-B-X.png,stimuli/m0_none_X-B-X.png,stimuli/m0_none_X-B-X.png,stimuli/m0_wW-L_X-B-X.png,0,9,9,5,,,,,,,,,104.99476321891416,111.6708049129229,112.41095130157191,112.41095130157191,112.41095130157191,113.2946375926258,113.2946375926258,left,0.32587586843874305,106.0524140073685,S5,K-A,2023-01-27_13h50.07.847,knowing_that_K_ONLY,2022.2.5,60.01921581181179,
Does Anna know that the book is here?,Does Anna think that the book is here?,Is the book here?,late,52,mem_12,mem_K,1,1,1,show,X-O-O,B-O-O,X-O-B,X-O-X,R,R,R,stimuli/blue-R.png,stimuli/blue-R.png,stimuli/blue-R.png,mB-M,m0,stimuli/m0_w0_X-O-O.png,stimuli/mW-R_w0_X-O-O.png,stimuli/mB-M_w0_B-O-O.png,stimuli/mB-M_w0_X-O-B.png,stimuli/mB-M_w0_X-O-X.png,stimuli/mW-L_w0_X-O-X.png,stimuli/m0_wW-R_X-O-X.png,stimuli/m0_none_X-O-X.png,stimuli/m0_none_X-O-X.png,stimuli/m0_wW-L_X-O-X.png,0,10,10,23,,,,,,,,,113.6446803555591,120.31960469426122,121.0561722094426,121.0561722094426,121.0561722094426,121.94479244400281,121.94479244400281,left,0.40358644153457135,114.70803244726267,S5,K-A,2023-01-27_13h50.07.847,knowing_that_K_ONLY,2022.2.5,60.01921581181179,
Does Anna know that the book is here?,Does Anna think that the book is here?,Is the book here?,early,42,mem_2,mem_K,0,1,0,switch,O-O-X,O-O-B,B-O-X,X-O-X,L,R,R,stimuli/blue-L.png,stimuli/blue-R.png,stimuli/blue-R.png,mB-M,m0,stimuli/m0_w0_O-O-X.png,stimuli/m0_wW-R_O-O-X.png,stimuli/m0_none_O-O-X.png,stimuli/mW-R_none_O-O-X.png,stimuli/mB-M_none_O-O-B.png,stimuli/mB-M_none_B-O-X.png,stimuli/mB-M_none_X-O-X.png,stimuli/mW-L_none_X-O-X.png,stimuli/m0_none_X-O-X.png,stimuli/m0_wW-L_X-O-X.png,0,11,11,13,,,,,,,,,122.37807449174579,129.05272294022143,129.79092686926015,129.79092686926015,129.79092686926015,130.67811439954676,130.67811439954676,right,0.3344659988069907,123.43941354728304,S5,K-A,2023-01-27_13h50.07.847,knowing_that_K_ONLY,2022.2.5,60.01921581181179,
Does Anna know that the book is here?,Does Anna think that the book is here?,Is the book here?,early,29,per_1,per_K,1,0,1,no,B-X-X,B-O-X,none,B-X-X,L,M,L,stimuli/blue-L.png,stimuli/blue-M.png,stimuli/blue-L.png,mB-M,m0,stimuli/m0_w0_B-X-X.png,stimuli/m0_wW-R_B-X-X.png,stimuli/m0_none_B-X-X.png,stimuli/mW-R_none_B-X-X.png,stimuli/mB-M_none_B-X-X.png,stimuli/mB-M_none_B-O-X.png,stimuli/mB-M_none_B-X-X.png,stimuli/mW-L_none_B-X-X.png,stimuli/m0_none_B-X-X.png,stimuli/m0_wW-L_B-X-X.png,0,12,12,0,,,,,,,,,131.04479462548625,137.71768988785334,138.46001324278768,138.46001324278768,138.46001324278768,139.34476748551242,139.34476748551242,left,0.2847066328395158,132.09847002848983,S5,K-A,2023-01-27_13h50.07.847,knowing_that_K_ONLY,2022.2.5,60.01921581181179,
Does Anna know that the book is here?,Does Anna think that the book is here?,Is the book here?,early,41,mem_1,mem_K,0,1,0,switch,O-O-X,O-O-B,O-B-X,O-X-X,M,R,R,stimuli/blue-M.png,stimuli/blue-R.png,stimuli/blue-R.png,mB-L,m0,stimuli/m0_w0_O-O-X.png,stimuli/m0_wW-R_O-O-X.png,stimuli/m0_none_O-O-X.png,stimuli/mW-R_none_O-O-X.png,stimuli/mB-L_none_O-O-B.png,stimuli/mB-L_none_O-B-X.png,stimuli/mB-L_none_O-X-X.png,stimuli/mW-L_none_O-X-X.png,stimuli/m0_none_O-X-X.png,stimuli/m0_wW-L_O-X-X.png,0,13,13,12,,,,,,,,,139.66154109709896,146.33162099623587,147.072152347886,147.072152347886,147.072152347886,147.961640353431,147.961640353431,right,0.2991677711252123,140.71535380359273,S5,K-A,2023-01-27_13h50.07.847,knowing_that_K_ONLY,2022.2.5,60.01921581181179,
Does Anna know that the book is here?,Does Anna think that the book is here?,Is the book here?,early,49,mem_9,mem_K,0,1,0,switch,X-O-O,B-O-O,X-B-O,X-X-O,M,L,L,stimuli/blue-M.png,stimuli/blue-L.png,stimuli/blue-L.png,mB-R,m0,stimuli/m0_w0_X-O-O.png,stimuli/m0_wW-R_X-O-O.png,stimuli/m0_none_X-O-O.png,stimuli/mW-R_none_X-O-O.png,stimuli/mB-R_none_B-O-O.png,stimuli/mB-R_none_X-B-O.png,stimuli/mB-R_none_X-X-O.png,stimuli/mW-L_none_X-X-O.png,stimuli/m0_none_X-X-O.png,stimuli/m0_wW-L_X-X-O.png,0,14,14,20,,,,,,,,,148.27821699215565,154.95086363260634,155.69076268246863,155.69076268246863,155.69076268246863,156.57829507556744,156.57829507556744,right,0.32282439433038235,149.33575293328613,S5,K-A,2023-01-27_13h50.07.847,knowing_that_K_ONLY,2022.2.5,60.01921581181179,
Does Anna know that the book is here?,Does Anna think that the book is here?,Is the book here?,early,30,per_2,per_K,1,0,1,no,X-X-B,O-X-B,none,X-X-B,R,L,R,stimuli/blue-R.png,stimuli/blue-L.png,stimuli/blue-R.png,mB-L,m0,stimuli/m0_w0_X-X-B.png,stimuli/m0_wW-R_X-X-B.png,stimuli/m0_none_X-X-B.png,stimuli/mW-R_none_X-X-B.png,stimuli/mB-L_none_X-X-B.png,stimuli/mB-L_none_O-X-B.png,stimuli/mB-L_none_X-X-B.png,stimuli/mW-L_none_X-X-B.png,stimuli/m0_none_X-X-B.png,stimuli/m0_wW-L_X-X-B.png,0,15,15,1,,,,,,,,,156.92832628963515,163.60400804318488,164.3398643390974,164.3398643390974,164.3398643390974,165.22806079348084,165.22806079348084,left,0.4650397028308362,157.99196870764717,S5,K-A,2023-01-27_13h50.07.847,knowing_that_K_ONLY,2022.2.5,60.01921581181179,
Does Anna know that the book is here?,Does Anna think that the book is here?,Is the book here?,late,51,mem_11,mem_K,1,1,1,show,O-X-O,O-B-O,O-X-B,O-X-X,R,R,R,stimuli/blue-R.png,stimuli/blue-R.png,stimuli/blue-R.png,mB-L,m0,stimuli/m0_w0_O-X-O.png,stimuli/mW-R_w0_O-X-O.png,stimuli/mB-L_w0_O-B-O.png,stimuli/mB-L_w0_O-X-B.png,stimuli/mB-L_w0_O-X-X.png,stimuli/mW-L_w0_O-X-X.png,stimuli/m0_wW-R_O-X-X.png,stimuli/m0_none_O-X-X.png,stimuli/m0_none_O-X-X.png,stimuli/m0_wW-L_O-X-X.png,0,16,16,22,,,,,,,,,165.71136911481153,172.38668547431007,173.12604557583109,173.12604557583109,173.12604557583109,174.01147671206854,174.01147671206854,left,0.3212473288876936,166.77282430103514,S5,K-A,2023-01-27_13h50.07.847,knowing_that_K_ONLY,2022.2.5,60.01921581181179,
Does Anna know that the book is here?,Does Anna think that the book is here?,Is the book here?,late,39,per_11,per_K,1,1,1,show,X-X-O,X-B-O,none,X-B-O,M,M,M,stimuli/blue-M.png,stimuli/blue-M.png,stimuli/blue-M.png,mB-M,m0,stimuli/m0_w0_X-X-O.png,stimuli/mW-R_w0_X-X-O.png,stimuli/mB-M_w0_X-X-O.png,stimuli/mB-M_w0_X-B-O.png,stimuli/mB-M_w0_X-B-O.png,stimuli/mW-L_w0_X-B-O.png,stimuli/m0_wW-R_X-B-O.png,stimuli/m0_none_X-B-O.png,stimuli/m0_none_X-B-O.png,stimuli/m0_wW-L_X-B-O.png,0,17,17,10,,,,,,,,,174.3617642474128,181.03698757407255,181.76373275613878,181.76373275613878,181.76373275613878,182.66139801917598,182.66139801917598,left,0.4076214963570237,175.41559908923227,S5,K-A,2023-01-27_13h50.07.847,knowing_that_K_ONLY,2022.2.5,60.01921581181179,
Does Anna know that the book is here?,Does Anna think that the book is here?,Is the book here?,early,48,mem_8,mem_K,0,1,0,switch,X-O-O,B-O-O,X-B-O,X-X-O,M,L,L,stimuli/blue-M.png,stimuli/blue-L.png,stimuli/blue-L.png,mB-R,m0,stimuli/m0_w0_X-O-O.png,stimuli/m0_wW-R_X-O-O.png,stimuli/m0_none_X-O-O.png,stimuli/mW-R_none_X-O-O.png,stimuli/mB-R_none_B-O-O.png,stimuli/mB-R_none_X-B-O.png,stimuli/mB-R_none_X-X-O.png,stimuli/mW-L_none_X-X-O.png,stimuli/m0_none_X-X-O.png,stimuli/m0_wW-L_X-X-O.png,0,18,18,19,,,,,,,,,183.0949864332797,189.77101497445256,190.50950538017787,190.50950538017787,190.50950538017787,191.3949025113834,191.3949025113834,right,0.6662499627564102,184.1477337544784,S5,K-A,2023-01-27_13h50.07.847,knowing_that_K_ONLY,2022.2.5,60.01921581181179,
Does Anna know that the book is here?,Does Anna think that the book is here?,Is the book here?,early,44,mem_4,mem_K,0,1,0,switch,O-X-O,O-B-O,O-X-B,O-X-X,R,M,M,stimuli/blue-R.png,stimuli/blue-M.png,stimuli/blue-M.png,mB-L,m0,stimuli/m0_w0_O-X-O.png,stimuli/m0_wW-R_O-X-O.png,stimuli/m0_none_O-X-O.png,stimuli/mW-R_none_O-X-O.png,stimuli/mB-L_none_O-B-O.png,stimuli/mB-L_none_O-X-B.png,stimuli/mB-L_none_O-X-X.png,stimuli/mW-L_none_O-X-X.png,stimuli/m0_none_O-X-X.png,stimuli/m0_wW-L_O-X-X.png,0,19,19,15,,,,,,,,,192.07828513067216,198.7507819563616,199.4909559339285,199.4909559339285,199.4909559339285,200.37805652676616,200.37805652676616,right,1.4032845663605258,193.13700098358095,S5,K-A,2023-01-27_13h50.07.847,knowing_that_K_ONLY,2022.2.5,60.01921581181179,
Does Anna know that the book is here?,Does Anna think that the book is here?,Is the book here?,early,37,per_9,per_K,1,0,1,switch,X-O-B,X-B-O,none,X-B-X,M,R,M,stimuli/blue-M.png,stimuli/blue-R.png,stimuli/blue-M.png,mB-R,m0,stimuli/m0_w0_X-O-B.png,stimuli/m0_wW-R_X-O-B.png,stimuli/m0_none_X-O-B.png,stimuli/mW-R_none_X-O-B.png,stimuli/mB-R_none_X-O-B.png,stimuli/mB-R_none_X-B-O.png,stimuli/mB-R_none_X-B-X.png,stimuli/mW-L_none_X-B-X.png,stimuli/m0_none_X-B-X.png,stimuli/m0_wW-L_X-B-X.png,0,20,20,8,,,,,,,,,201.81151116627734,208.48907282284927,209.2020366472425,209.2020366472425,209.2020366472425,210.11158283357508,210.11158283357508,left,0.6449525216594338,202.8706783883972,S5,K-A,2023-01-27_13h50.07.847,knowing_that_K_ONLY,2022.2.5,60.01921581181179,
Does Anna know that the book is here?,Does Anna think that the book is here?,Is the book here?,early,36,per_8,per_K,1,0,1,switch,O-X-B,B-X-O,none,B-X-X,L,M,L,stimuli/blue-L.png,stimuli/blue-M.png,stimuli/blue-L.png,mB-L,m0,stimuli/m0_w0_O-X-B.png,stimuli/m0_wW-R_O-X-B.png,stimuli/m0_none_O-X-B.png,stimuli/mW-R_none_O-X-B.png,stimuli/mB-L_none_O-X-B.png,stimuli/mB-L_none_B-X-O.png,stimuli/mB-L_none_B-X-X.png,stimuli/mW-L_none_B-X-X.png,stimuli/m0_none_B-X-X.png,stimuli/m0_wW-L_B-X-X.png,0,21,21,7,,,,,,,,,210.77822533308063,217.45152416510973,218.19149796199054,218.19149796199054,218.19149796199054,219.07825690007303,219.07825690007303,left,0.31842490774579346,211.83978766726796,S5,K-A,2023-01-27_13h50.07.847,knowing_that_K_ONLY,2022.2.5,60.01921581181179,
Does Anna know that the book is here?,Does Anna think that the book is here?,Is the book here?,late,38,per_10,per_K,1,1,1,show,X-X-X,X-O-X,none,X-O-B,R,R,R,stimuli/blue-R.png,stimuli/blue-R.png,stimuli/blue-R.png,mB-R,m0,stimuli/m0_w0_X-X-X.png,stimuli/mW-R_w0_X-X-X.png,stimuli/mB-R_w0_X-X-X.png,stimuli/mB-R_w0_X-O-X.png,stimuli/mB-R_w0_X-O-B.png,stimuli/mW-L_w0_X-O-B.png,stimuli/m0_wW-R_X-O-B.png,stimuli/m0_none_X-O-B.png,stimuli/m0_none_X-O-B.png,stimuli/m0_wW-L_X-O-B.png,0,22,22,9,,,,,,,,,219.42820181825664,226.09963935380802,226.84339060087223,226.84339060087223,226.84339060087223,227.72826418222394,227.72826418222394,left,0.5722560925642028,220.48027449159417,S5,K-A,2023-01-27_13h50.07.847,knowing_that_K_ONLY,2022.2.5,60.01921581181179,
Does Anna know that the book is here?,Does Anna think that the book is here?,Is the book here?,late,32,per_4,per_K,1,0,1,no,O-X-B,O-O-B,none,O-X-B,R,L,R,stimuli/blue-R.png,stimuli/blue-L.png,stimuli/blue-R.png,mB-M,m0,stimuli/m0_w0_O-X-B.png,stimuli/mW-R_w0_O-X-B.png,stimuli/mB-M_w0_O-X-B.png,stimuli/mB-M_w0_O-O-B.png,stimuli/mB-M_w0_O-X-B.png,stimuli/mW-L_w0_O-X-B.png,stimuli/m0_wW-R_O-X-B.png,stimuli/m0_none_O-X-B.png,stimuli/m0_none_O-X-B.png,stimuli/m0_wW-L_O-X-B.png,0,23,23,3,,,,,,,,,228.32822818821296,235.00096721982118,235.7394900266081,235.7394900266081,235.7394900266081,236.62842304364312,236.62842304364312,left,0.32892413437366486,229.3815244025318,S5,K-A,2023-01-27_13h50.07.847,knowing_that_K_ONLY,2022.2.5,60.01921581181179,
Does Anna know that the book is here?,Does Anna think that the book is here?,Is the book here?,late,32,per_4,per_K,1,0,1,no,O-X-B,O-O-B,none,O-X-B,R,L,R,stimuli/blue-R.png,stimuli/blue-L.png,stimuli/blue-R.png,mB-M,m0,stimuli/m0_w0_O-X-B.png,stimuli/mW-R_w0_O-X-B.png,stimuli/mB-M_w0_O-X-B.png,stimuli/mB-M_w0_O-O-B.png,stimuli/mB-M_w0_O-X-B.png,stimuli/mW-L_w0_O-X-B.png,stimuli/m0_wW-R_O-X-B.png,stimuli/m0_none_O-X-B.png,stimuli/m0_none_O-X-B.png,stimuli/m0_wW-L_O-X-B.png,1,0,24,3,,,,,,,,,236.9784257063875,243.65507981250994,244.3934977168683,244.3934977168683,244.3934977168683,245.27832478191704,245.27832478191704,left,0.3427212113747373,238.037832888891,S5,K-A,2023-01-27_13h50.07.847,knowing_that_K_ONLY,2022.2.5,60.01921581181179,
Does Anna know that the book is here?,Does Anna think that the book is here?,Is the book here?,early,46,mem_6,mem_K,0,1,0,switch,O-X-O,O-B-O,O-X-B,O-X-X,R,M,M,stimuli/blue-R.png,stimuli/blue-M.png,stimuli/blue-M.png,mB-L,m0,stimuli/m0_w0_O-X-O.png,stimuli/m0_wW-R_O-X-O.png,stimuli/m0_none_O-X-O.png,stimuli/mW-R_none_O-X-O.png,stimuli/mB-L_none_O-B-O.png,stimuli/mB-L_none_O-X-B.png,stimuli/mB-L_none_O-X-X.png,stimuli/mW-L_none_O-X-X.png,stimuli/m0_none_O-X-X.png,stimuli/m0_wW-L_O-X-X.png,1,1,25,17,,,,,,,,,245.64503708807752,252.31931148073636,253.05636180378497,253.05636180378497,253.05636180378497,253.94512511626817,253.94512511626817,right,1.035685561830178,246.70875714032445,S5,K-A,2023-01-27_13h50.07.847,knowing_that_K_ONLY,2022.2.5,60.01921581181179,
Does Anna know that the book is here?,Does Anna think that the book is here?,Is the book here?,late,39,per_11,per_K,1,1,1,show,X-X-O,X-B-O,none,X-B-O,M,M,M,stimuli/blue-M.png,stimuli/blue-M.png,stimuli/blue-M.png,mB-M,m0,stimuli/m0_w0_X-X-O.png,stimuli/mW-R_w0_X-X-O.png,stimuli/mB-M_w0_X-X-O.png,stimuli/mB-M_w0_X-B-O.png,stimuli/mB-M_w0_X-B-O.png,stimuli/mW-L_w0_X-B-O.png,stimuli/m0_wW-R_X-B-O.png,stimuli/m0_none_X-B-O.png,stimuli/m0_none_X-B-O.png,stimuli/m0_wW-L_X-B-O.png,1,2,26,10,,,,,,,,,255.0117904569488,261.6871940747369,262.42534860013984,262.42534860013984,262.42534860013984,263.3114444393432,263.3114444393432,left,0.35792596999090165,256.07457536971197,S5,K-A,2023-01-27_13h50.07.847,knowing_that_K_ONLY,2022.2.5,60.01921581181179,
Does Anna know that the book is here?,Does Anna think that the book is here?,Is the book here?,early,31,per_3,per_K,1,0,1,no,O-B-X,O-B-O,none,O-B-X,M,R,M,stimuli/blue-M.png,stimuli/blue-R.png,stimuli/blue-M.png,mB-R,m0,stimuli/m0_w0_O-B-X.png,stimuli/m0_wW-R_O-B-X.png,stimuli/m0_none_O-B-X.png,stimuli/mW-R_none_O-B-X.png,stimuli/mB-R_none_O-B-X.png,stimuli/mB-R_none_O-B-O.png,stimuli/mB-R_none_O-B-X.png,stimuli/mW-L_none_O-B-X.png,stimuli/m0_none_O-B-X.png,stimuli/m0_wW-L_O-B-X.png,1,3,27,2,,,,,,,,,263.6949504392687,270.36909586936235,271.1087966632331,271.1087966632331,271.1087966632331,271.9950881919358,271.9950881919358,left,0.6186213673790917,264.74527313455474,S5,K-A,2023-01-27_13h50.07.847,knowing_that_K_ONLY,2022.2.5,60.01921581181179,
Does Anna know that the book is here?,Does Anna think that the book is here?,Is the book here?,early,43,mem_3,mem_K,0,1,0,switch,O-O-X,O-O-B,B-O-X,X-O-X,L,R,R,stimuli/blue-L.png,stimuli/blue-R.png,stimuli/blue-R.png,mB-M,m0,stimuli/m0_w0_O-O-X.png,stimuli/m0_wW-R_O-O-X.png,stimuli/m0_none_O-O-X.png,stimuli/mW-R_none_O-O-X.png,stimuli/mB-M_none_O-O-B.png,stimuli/mB-M_none_B-O-X.png,stimuli/mB-M_none_X-O-X.png,stimuli/mW-L_none_X-O-X.png,stimuli/m0_none_X-O-X.png,stimuli/m0_wW-L_X-O-X.png,1,4,28,14,,,,,,,,,272.6449071629904,279.29120051383507,280.0599037850043,280.0599037850043,280.0599037850043,280.94515142205637,280.94515142205637,right,0.25159531622193754,273.6987593282247,S5,K-A,2023-01-27_13h50.07.847,knowing_that_K_ONLY,2022.2.5,60.01921581181179,
Does Anna know that the book is here?,Does Anna think that the book is here?,Is the book here?,early,42,mem_2,mem_K,0,1,0,switch,O-O-X,O-O-B,B-O-X,X-O-X,L,R,R,stimuli/blue-L.png,stimuli/blue-R.png,stimuli/blue-R.png,mB-M,m0,stimuli/m0_w0_O-O-X.png,stimuli/m0_wW-R_O-O-X.png,stimuli/m0_none_O-O-X.png,stimuli/mW-R_none_O-O-X.png,stimuli/mB-M_none_O-O-B.png,stimuli/mB-M_none_B-O-X.png,stimuli/mB-M_none_X-O-X.png,stimuli/mW-L_none_X-O-X.png,stimuli/m0_none_X-O-X.png,stimuli/m0_wW-L_X-O-X.png,1,5,29,13,,,,,,,,,281.2283469493268,287.9023983842926,288.6409311359748,288.6409311359748,288.6409311359748,289.5282181149814,289.5282181149814,right,0.444955216255039,282.28440591541585,S5,K-A,2023-01-27_13h50.07.847,knowing_that_K_ONLY,2022.2.5,60.01921581181179,
Does Anna know that the book is here?,Does Anna think that the book is here?,Is the book here?,early,45,mem_5,mem_K,0,1,0,switch,O-X-O,O-B-O,B-X-O,X-X-O,L,M,M,stimuli/blue-L.png,stimuli/blue-M.png,stimuli/blue-M.png,mB-R,m0,stimuli/m0_w0_O-X-O.png,stimuli/m0_wW-R_O-X-O.png,stimuli/m0_none_O-X-O.png,stimuli/mW-R_none_O-X-O.png,stimuli/mB-R_none_O-B-O.png,stimuli/mB-R_none_B-X-O.png,stimuli/mB-R_none_X-X-O.png,stimuli/mW-L_none_X-X-O.png,stimuli/m0_none_X-X-O.png,stimuli/m0_wW-L_X-X-O.png,1,6,30,16,,,,,,,,,289.9950580364093,296.6669151817914,297.407651847112,297.407651847112,297.407651847112,298.2951794281835,298.2951794281835,right,0.75777044496499,291.0569090929348,S5,K-A,2023-01-27_13h50.07.847,knowing_that_K_ONLY,2022.2.5,60.01921581181179,
Does Anna know that the book is here?,Does Anna think that the book is here?,Is the book here?,late,38,per_10,per_K,1,1,1,show,X-X-X,X-O-X,none,X-O-B,R,R,R,stimuli/blue-R.png,stimuli/blue-R.png,stimuli/blue-R.png,mB-R,m0,stimuli/m0_w0_X-X-X.png,stimuli/mW-R_w0_X-X-X.png,stimuli/mB-R_w0_X-X-X.png,stimuli/mB-R_w0_X-O-X.png,stimuli/mB-R_w0_X-O-B.png,stimuli/mW-L_w0_X-O-B.png,stimuli/m0_wW-R_X-O-B.png,stimuli/m0_none_X-O-B.png,stimuli/m0_none_X-O-B.png,stimuli/m0_wW-L_X-O-B.png,1,7,31,9,,,,,,,,,299.07838746672496,305.7528094286099,306.48948922462296,306.48948922462296,306.48948922462296,307.3786869038595,307.3786869038595,left,0.3539262035628781,300.1386521544773,S5,K-A,2023-01-27_13h50.07.847,knowing_that_K_ONLY,2022.2.5,60.01921581181179,
Does Anna know that the book is here?,Does Anna think that the book is here?,Is the book here?,early,30,per_2,per_K,1,0,1,no,X-X-B,O-X-B,none,X-X-B,R,L,R,stimuli/blue-R.png,stimuli/blue-L.png,stimuli/blue-R.png,mB-L,m0,stimuli/m0_w0_X-X-B.png,stimuli/m0_wW-R_X-X-B.png,stimuli/m0_none_X-X-B.png,stimuli/mW-R_none_X-X-B.png,stimuli/mB-L_none_X-X-B.png,stimuli/mB-L_none_O-X-B.png,stimuli/mB-L_none_X-X-B.png,stimuli/mW-L_none_X-X-B.png,stimuli/m0_none_X-X-B.png,stimuli/m0_wW-L_X-X-B.png,1,8,32,1,,,,,,,,,307.7618397001643,314.4354413698893,315.17128932487685,315.17128932487685,315.17128932487685,316.06155527662486,316.06155527662486,left,0.5112262906040996,308.8154297696892,S5,K-A,2023-01-27_13h50.07.847,knowing_that_K_ONLY,2022.2.5,60.01921581181179,
Does Anna know that the book is here?,Does Anna think that the book is here?,Is the book here?,late,52,mem_12,mem_K,1,1,1,show,X-O-O,B-O-O,X-O-B,X-O-X,R,R,R,stimuli/blue-R.png,stimuli/blue-R.png,stimuli/blue-R.png,mB-M,m0,stimuli/m0_w0_X-O-O.png,stimuli/mW-R_w0_X-O-O.png,stimuli/mB-M_w0_B-O-O.png,stimuli/mB-M_w0_X-O-B.png,stimuli/mB-M_w0_X-O-X.png,stimuli/mW-L_w0_X-O-X.png,stimuli/m0_wW-R_X-O-X.png,stimuli/m0_none_X-O-X.png,stimuli/m0_none_X-O-X.png,stimuli/m0_wW-L_X-O-X.png,1,9,33,23,,,,,,,,,316.59493574651424,323.27143875462934,323.9845552811166,323.9845552811166,323.9845552811166,324.8950731783407,324.8950731783407,left,0.3255412712460384,317.6468717579264,S5,K-A,2023-01-27_13h50.07.847,knowing_that_K_ONLY,2022.2.5,60.01921581181179,
Does Anna know that the book is here?,Does Anna think that the book is here?,Is the book here?,early,37,per_9,per_K,1,0,1,switch,X-O-B,X-B-O,none,X-B-X,M,R,M,stimuli/blue-M.png,stimuli/blue-R.png,stimuli/blue-M.png,mB-R,m0,stimuli/m0_w0_X-O-B.png,stimuli/m0_wW-R_X-O-B.png,stimuli/m0_none_X-O-B.png,stimuli/mW-R_none_X-O-B.png,stimuli/mB-R_none_X-O-B.png,stimuli/mB-R_none_X-B-O.png,stimuli/mB-R_none_X-B-X.png,stimuli/mW-L_none_X-B-X.png,stimuli/m0_none_X-B-X.png,stimuli/m0_wW-L_X-B-X.png,1,10,34,8,,,,,,,,,325.24508931464516,331.9178758250782,332.65801515604835,332.65801515604835,332.65801515604835,333.5451144656399,333.5451144656399,left,0.2678304926957935,326.302300282754,S5,K-A,2023-01-27_13h50.07.847,knowing_that_K_ONLY,2022.2.5,60.01921581181179,
Does Anna know that the book is here?,Does Anna think that the book is here?,Is the book here?,early,29,per_1,per_K,1,0,1,no,B-X-X,B-O-X,none,B-X-X,L,M,L,stimuli/blue-L.png,stimuli/blue-M.png,stimuli/blue-L.png,mB-M,m0,stimuli/m0_w0_B-X-X.png,stimuli/m0_wW-R_B-X-X.png,stimuli/m0_none_B-X-X.png,stimuli/mW-R_none_B-X-X.png,stimuli/mB-M_none_B-X-X.png,stimuli/mB-M_none_B-O-X.png,stimuli/mB-M_none_B-X-X.png,stimuli/mW-L_none_B-X-X.png,stimuli/m0_none_B-X-X.png,stimuli/m0_wW-L_B-X-X.png,1,11,35,0,,,,,,,,,333.84507064393256,340.5178292444907,341.25675273372326,341.25675273372326,341.25675273372326,342.1450146319112,342.1450146319112,left,0.3325177647639066,334.90744781668764,S5,K-A,2023-01-27_13h50.07.847,knowing_that_K_ONLY,2022.2.5,60.01921581181179,
Does Anna know that the book is here?,Does Anna think that the book is here?,Is the book here?,early,49,mem_9,mem_K,0,1,0,switch,X-O-O,B-O-O,X-B-O,X-X-O,M,L,L,stimuli/blue-M.png,stimuli/blue-L.png,stimuli/blue-L.png,mB-R,m0,stimuli/m0_w0_X-O-O.png,stimuli/m0_wW-R_X-O-O.png,stimuli/m0_none_X-O-O.png,stimuli/mW-R_none_X-O-O.png,stimuli/mB-R_none_B-O-O.png,stimuli/mB-R_none_X-B-O.png,stimuli/mB-R_none_X-X-O.png,stimuli/mW-L_none_X-X-O.png,stimuli/m0_none_X-X-O.png,stimuli/m0_wW-L_X-X-O.png,1,12,36,20,,,,,,,,,342.49499130947515,349.1684280866757,349.8840208881302,349.8840208881302,349.8840208881302,350.7951451023109,350.7951451023109,right,0.3064939393661916,343.56883749493863,S5,K-A,2023-01-27_13h50.07.847,knowing_that_K_ONLY,2022.2.5,60.01921581181179,
Does Anna know that the book is here?,Does Anna think that the book is here?,Is the book here?,early,47,mem_7,mem_K,0,1,0,switch,X-O-O,B-O-O,X-O-B,X-O-X,R,L,L,stimuli/blue-R.png,stimuli/blue-L.png,stimuli/blue-L.png,mB-M,m0,stimuli/m0_w0_X-O-O.png,stimuli/m0_wW-R_X-O-O.png,stimuli/m0_none_X-O-O.png,stimuli/mW-R_none_X-O-O.png,stimuli/mB-M_none_B-O-O.png,stimuli/mB-M_none_X-O-B.png,stimuli/mB-M_none_X-O-X.png,stimuli/mW-L_none_X-O-X.png,stimuli/m0_none_X-O-X.png,stimuli/m0_wW-L_X-O-X.png,1,13,37,18,,,,,,,,,351.1287416006671,357.80457092344295,358.5411394009134,358.5411394009134,358.5411394009134,359.42834361293353,359.42834361293353,right,0.6021449472755194,352.18116074078716,S5,K-A,2023-01-27_13h50.07.847,knowing_that_K_ONLY,2022.2.5,60.01921581181179,
Does Anna know that the book is here?,Does Anna think that the book is here?,Is the book here?,early,36,per_8,per_K,1,0,1,switch,O-X-B,B-X-O,none,B-X-X,L,M,L,stimuli/blue-L.png,stimuli/blue-M.png,stimuli/blue-L.png,mB-L,m0,stimuli/m0_w0_O-X-B.png,stimuli/m0_wW-R_O-X-B.png,stimuli/m0_none_O-X-B.png,stimuli/mW-R_none_O-X-B.png,stimuli/mB-L_none_O-X-B.png,stimuli/mB-L_none_B-X-O.png,stimuli/mB-L_none_B-X-X.png,stimuli/mW-L_none_B-X-X.png,stimuli/m0_none_B-X-X.png,stimuli/m0_wW-L_B-X-X.png,1,14,38,7,,,,,,,,,360.0616784647573,366.7367551847128,367.4742844660068,367.4742844660068,367.4742844660068,368.36197533551604,368.36197533551604,left,0.6922044946113601,361.115475451923,S5,K-A,2023-01-27_13h50.07.847,knowing_that_K_ONLY,2022.2.5,60.01921581181179,
Does Anna know that the book is here?,Does Anna think that the book is here?,Is the book here?,late,40,per_12,per_K,1,1,1,show,O-X-X,O-B-X,none,O-B-X,M,M,M,stimuli/blue-M.png,stimuli/blue-M.png,stimuli/blue-M.png,mB-M,m0,stimuli/m0_w0_O-X-X.png,stimuli/mW-R_w0_O-X-X.png,stimuli/mB-M_w0_O-X-X.png,stimuli/mB-M_w0_O-B-X.png,stimuli/mB-M_w0_O-B-X.png,stimuli/mW-L_w0_O-B-X.png,stimuli/m0_wW-R_O-B-X.png,stimuli/m0_none_O-B-X.png,stimuli/m0_none_O-B-X.png,stimuli/m0_wW-L_O-B-X.png,1,15,39,11,,,,,,,,,369.07840029883664,375.7555490825325,376.4907323345542,376.4907323345542,376.4907323345542,377.3784052392002,377.3784052392002,left,0.36322723259218037,370.13849079073407,S5,K-A,2023-01-27_13h50.07.847,knowing_that_K_ONLY,2022.2.5,60.01921581181179,
Does Anna know that the book is here?,Does Anna think that the book is here?,Is the book here?,late,33,per_5,per_K,1,0,1,no,X-B-O,O-B-O,none,X-B-O,M,R,M,stimuli/blue-M.png,stimuli/blue-R.png,stimuli/blue-M.png,mB-L,m0,stimuli/m0_w0_X-B-O.png,stimuli/mW-R_w0_X-B-O.png,stimuli/mB-L_w0_X-B-O.png,stimuli/mB-L_w0_O-B-O.png,stimuli/mB-L_w0_X-B-O.png,stimuli/mW-L_w0_X-B-O.png,stimuli/m0_wW-R_X-B-O.png,stimuli/m0_none_X-B-O.png,stimuli/m0_none_X-B-O.png,stimuli/m0_wW-L_X-B-O.png,1,16,40,4,,,,,,,,,377.7617498753825,384.43622573208995,385.1745627942728,385.1745627942728,385.1745627942728,386.06185041496065,386.06185041496065,left,0.33552143920678645,378.82483666343614,S5,K-A,2023-01-27_13h50.07.847,knowing_that_K_ONLY,2022.2.5,60.01921581181179,
Does Anna know that the book is here?,Does Anna think that the book is here?,Is the book here?,early,35,per_7,per_K,1,0,1,switch,B-X-O,O-X-B,none,X-X-B,R,L,R,stimuli/blue-R.png,stimuli/blue-L.png,stimuli/blue-R.png,mB-R,m0,stimuli/m0_w0_B-X-O.png,stimuli/m0_wW-R_B-X-O.png,stimuli/m0_none_B-X-O.png,stimuli/mW-R_none_B-X-O.png,stimuli/mB-R_none_B-X-O.png,stimuli/mB-R_none_O-X-B.png,stimuli/mB-R_none_X-X-B.png,stimuli/mW-L_none_X-X-B.png,stimuli/m0_none_X-X-B.png,stimuli/m0_wW-L_X-X-B.png,1,17,41,6,,,,,,,,,386.4287231224589,393.1020607716637,393.84248625847977,393.84248625847977,393.84248625847977,394.72842522512656,394.72842522512656,left,1.061521076131612,387.48997588211205,S5,K-A,2023-01-27_13h50.07.847,knowing_that_K_ONLY,2022.2.5,60.01921581181179,
Does Anna know that the book is here?,Does Anna think that the book is here?,Is the book here?,early,41,mem_1,mem_K,0,1,0,switch,O-O-X,O-O-B,O-B-X,O-X-X,M,R,R,stimuli/blue-M.png,stimuli/blue-R.png,stimuli/blue-R.png,mB-L,m0,stimuli/m0_w0_O-O-X.png,stimuli/m0_wW-R_O-O-X.png,stimuli/m0_none_O-O-X.png,stimuli/mW-R_none_O-O-X.png,stimuli/mB-L_none_O-O-B.png,stimuli/mB-L_none_O-B-X.png,stimuli/mB-L_none_O-X-X.png,stimuli/mW-L_none_O-X-X.png,stimuli/m0_none_O-X-X.png,stimuli/m0_wW-L_O-X-X.png,1,18,42,12,,,,,,,,,395.8118685402442,402.48468135646544,403.22427500225604,403.22427500225604,403.22427500225604,404.11193475394975,404.11193475394975,right,0.3089727808255702,396.8634895236464,S5,K-A,2023-01-27_13h50.07.847,knowing_that_K_ONLY,2022.2.5,60.01921581181179,
Does Anna know that the book is here?,Does Anna think that the book is here?,Is the book here?,late,51,mem_11,mem_K,1,1,1,show,O-X-O,O-B-O,O-X-B,O-X-X,R,R,R,stimuli/blue-R.png,stimuli/blue-R.png,stimuli/blue-R.png,mB-L,m0,stimuli/m0_w0_O-X-O.png,stimuli/mW-R_w0_O-X-O.png,stimuli/mB-L_w0_O-B-O.png,stimuli/mB-L_w0_O-X-B.png,stimuli/mB-L_w0_O-X-X.png,stimuli/mW-L_w0_O-X-X.png,stimuli/m0_wW-R_O-X-X.png,stimuli/m0_none_O-X-X.png,stimuli/m0_none_O-X-X.png,stimuli/m0_wW-L_O-X-X.png,1,19,43,22,,,,,,,,,404.4450683342293,411.1218154730741,411.8578992179828,411.8578992179828,411.8578992179828,412.7452400919283,412.7452400919283,left,0.2921864655800164,405.4985865439521,S5,K-A,2023-01-27_13h50.07.847,knowing_that_K_ONLY,2022.2.5,60.01921581181179,
Does Anna know that the book is here?,Does Anna think that the book is here?,Is the book here?,late,34,per_6,per_K,1,0,1,no,X-B-X,O-B-X,none,X-B-X,M,R,M,stimuli/blue-M.png,stimuli/blue-R.png,stimuli/blue-M.png,mB-L,m0,stimuli/m0_w0_X-B-X.png,stimuli/mW-R_w0_X-B-X.png,stimuli/mB-L_w0_X-B-X.png,stimuli/mB-L_w0_O-B-X.png,stimuli/mB-L_w0_X-B-X.png,stimuli/mW-L_w0_X-B-X.png,stimuli/m0_wW-R_X-B-X.png,stimuli/m0_none_X-B-X.png,stimuli/m0_none_X-B-X.png,stimuli/m0_wW-L_X-B-X.png,1,20,44,5,,,,,,,,,413.06188987370115,419.7357914937893,420.47344620886724,420.47344620886724,420.47344620886724,421.3618928892538,421.3618928892538,left,0.4277374215889722,414.12146964797284,S5,K-A,2023-01-27_13h50.07.847,knowing_that_K_ONLY,2022.2.5,60.01921581181179,
Does Anna know that the book is here?,Does Anna think that the book is here?,Is the book here?,late,50,mem_10,mem_K,1,1,1,show,O-O-X,O-O-B,O-B-X,O-X-X,M,M,M,stimuli/blue-M.png,stimuli/blue-M.png,stimuli/blue-M.png,mB-L,m0,stimuli/m0_w0_O-O-X.png,stimuli/mW-R_w0_O-O-X.png,stimuli/mB-L_w0_O-O-B.png,stimuli/mB-L_w0_O-B-X.png,stimuli/mB-L_w0_O-X-X.png,stimuli/mW-L_w0_O-X-X.png,stimuli/m0_wW-R_O-X-X.png,stimuli/m0_none_O-X-X.png,stimuli/m0_none_O-X-X.png,stimuli/m0_wW-L_O-X-X.png,1,21,45,21,,,,,,,,,421.81192788877524,428.4857781805331,429.2247055193875,429.2247055193875,429.2247055193875,430.112078473554,430.112078473554,left,0.29483052040450275,422.8749161903979,S5,K-A,2023-01-27_13h50.07.847,knowing_that_K_ONLY,2022.2.5,60.01921581181179,
Does Anna know that the book is here?,Does Anna think that the book is here?,Is the book here?,early,44,mem_4,mem_K,0,1,0,switch,O-X-O,O-B-O,O-X-B,O-X-X,R,M,M,stimuli/blue-R.png,stimuli/blue-M.png,stimuli/blue-M.png,mB-L,m0,stimuli/m0_w0_O-X-O.png,stimuli/m0_wW-R_O-X-O.png,stimuli/m0_none_O-X-O.png,stimuli/mW-R_none_O-X-O.png,stimuli/mB-L_none_O-B-O.png,stimuli/mB-L_none_O-X-B.png,stimuli/mB-L_none_O-X-X.png,stimuli/mW-L_none_O-X-X.png,stimuli/m0_none_O-X-X.png,stimuli/m0_wW-L_O-X-X.png,1,22,46,15,,,,,,,,,430.4287523154635,437.1010046895826,437.8415905777365,437.8415905777365,437.8415905777365,438.72848232800607,438.72848232800607,right,0.37275538966059685,431.48976703966036,S5,K-A,2023-01-27_13h50.07.847,knowing_that_K_ONLY,2022.2.5,60.01921581181179,
Does Anna know that the book is here?,Does Anna think that the book is here?,Is the book here?,early,48,mem_8,mem_K,0,1,0,switch,X-O-O,B-O-O,X-B-O,X-X-O,M,L,L,stimuli/blue-M.png,stimuli/blue-L.png,stimuli/blue-L.png,mB-R,m0,stimuli/m0_w0_X-O-O.png,stimuli/m0_wW-R_X-O-O.png,stimuli/m0_none_X-O-O.png,stimuli/mW-R_none_X-O-O.png,stimuli/mB-R_none_B-O-O.png,stimuli/mB-R_none_X-B-O.png,stimuli/mB-R_none_X-X-O.png,stimuli/mW-L_none_X-X-O.png,stimuli/m0_none_X-X-O.png,stimuli/m0_wW-L_X-X-O.png,1,23,47,19,,,,,,,,,439.1285003571538,445.7809730070876,446.54165204346646,446.54165204346646,446.54165204346646,447.4285684955539,447.4285684955539,right,0.30446742952335626,440.1802875160938,S5,K-A,2023-01-27_13h50.07.847,knowing_that_K_ONLY,2022.2.5,60.01921581181179,
Does Anna know that the book is here?,Does Anna think that the book is here?,Is the book here?,late,33,per_5,per_K,1,0,1,no,X-B-O,O-B-O,none,X-B-O,M,R,M,stimuli/blue-M.png,stimuli/blue-R.png,stimuli/blue-M.png,mB-L,m0,stimuli/m0_w0_X-B-O.png,stimuli/mW-R_w0_X-B-O.png,stimuli/mB-L_w0_X-B-O.png,stimuli/mB-L_w0_O-B-O.png,stimuli/mB-L_w0_X-B-O.png,stimuli/mW-L_w0_X-B-O.png,stimuli/m0_wW-R_X-B-O.png,stimuli/m0_none_X-B-O.png,stimuli/m0_none_X-B-O.png,stimuli/m0_wW-L_X-B-O.png,2,0,48,4,,,,,,,,,447.7851030193269,454.4682809666265,455.20808730460703,455.20808730460703,455.20808730460703,456.09533963690046,456.09533963690046,left,0.4622942744754255,448.8488702296745,S5,K-A,2023-01-27_13h50.07.847,knowing_that_K_ONLY,2022.2.5,60.01921581181179,
Does Anna know that the book is here?,Does Anna think that the book is here?,Is the book here?,early,44,mem_4,mem_K,0,1,0,switch,O-X-O,O-B-O,O-X-B,O-X-X,R,M,M,stimuli/blue-R.png,stimuli/blue-M.png,stimuli/blue-M.png,mB-L,m0,stimuli/m0_w0_O-X-O.png,stimuli/m0_wW-R_O-X-O.png,stimuli/m0_none_O-X-O.png,stimuli/mW-R_none_O-X-O.png,stimuli/mB-L_none_O-B-O.png,stimuli/mB-L_none_O-X-B.png,stimuli/mB-L_none_O-X-X.png,stimuli/mW-L_none_O-X-X.png,stimuli/m0_none_O-X-X.png,stimuli/m0_wW-L_O-X-X.png,2,1,49,15,,,,,,,,,456.5785677577369,463.25257909228094,463.99185578513425,463.99185578513425,463.99185578513425,464.87863814178854,464.87863814178854,right,0.5030766221461818,457.63542808860075,S5,K-A,2023-01-27_13h50.07.847,knowing_that_K_ONLY,2022.2.5,60.01921581181179,
Does Anna know that the book is here?,Does Anna think that the book is here?,Is the book here?,late,32,per_4,per_K,1,0,1,no,O-X-B,O-O-B,none,O-X-B,R,L,R,stimuli/blue-R.png,stimuli/blue-L.png,stimuli/blue-R.png,mB-M,m0,stimuli/m0_w0_O-X-B.png,stimuli/mW-R_w0_O-X-B.png,stimuli/mB-M_w0_O-X-B.png,stimuli/mB-M_w0_O-O-B.png,stimuli/mB-M_w0_O-X-B.png,stimuli/mW-L_w0_O-X-B.png,stimuli/m0_wW-R_O-X-B.png,stimuli/m0_none_O-X-B.png,stimuli/m0_none_O-X-B.png,stimuli/m0_wW-L_O-X-B.png,2,2,50,3,,,,,,,,,465.4120866218582,472.0887256503338,472.8241517499555,472.8241517499555,472.8241517499555,473.7121608556481,473.7121608556481,left,0.4141177483834326,466.47741517820396,S5,K-A,2023-01-27_13h50.07.847,knowing_that_K_ONLY,2022.2.5,60.01921581181179,
Does Anna know that the book is here?,Does Anna think that the book is here?,Is the book here?,late,39,per_11,per_K,1,1,1,show,X-X-O,X-B-O,none,X-B-O,M,M,M,stimuli/blue-M.png,stimuli/blue-M.png,stimuli/blue-M.png,mB-M,m0,stimuli/m0_w0_X-X-O.png,stimuli/mW-R_w0_X-X-O.png,stimuli/mB-M_w0_X-X-O.png,stimuli/mB-M_w0_X-B-O.png,stimuli/mB-M_w0_X-B-O.png,stimuli/mW-L_w0_X-B-O.png,stimuli/m0_wW-R_X-B-O.png,stimuli/m0_none_X-B-O.png,stimuli/m0_none_X-B-O.png,stimuli/m0_wW-L_X-B-O.png,2,3,51,10,,,,,,,,,474.14546471787617,480.81900158547796,481.556084951153,481.556084951153,481.556084951153,482.4453349211253,482.4453349211253,left,0.3922111032297835,475.2096172120655,S5,K-A,2023-01-27_13h50.07.847,knowing_that_K_ONLY,2022.2.5,60.01921581181179,
Does Anna know that the book is here?,Does Anna think that the book is here?,Is the book here?,late,51,mem_11,mem_K,1,1,1,show,O-X-O,O-B-O,O-X-B,O-X-X,R,R,R,stimuli/blue-R.png,stimuli/blue-R.png,stimuli/blue-R.png,mB-L,m0,stimuli/m0_w0_O-X-O.png,stimuli/mW-R_w0_O-X-O.png,stimuli/mB-L_w0_O-B-O.png,stimuli/mB-L_w0_O-X-B.png,stimuli/mB-L_w0_O-X-X.png,stimuli/mW-L_w0_O-X-X.png,stimuli/m0_wW-R_O-X-X.png,stimuli/m0_none_O-X-X.png,stimuli/m0_none_O-X-X.png,stimuli/m0_wW-L_O-X-X.png,2,4,52,22,,,,,,,,,482.8621703834506,489.5386268752627,490.2742361531127,490.2742361531127,490.2742361531127,491.162082611816,491.162082611816,left,0.39613034820649773,483.9155012444826,S5,K-A,2023-01-27_13h50.07.847,knowing_that_K_ONLY,2022.2.5,60.01921581181179,
Does Anna know that the book is here?,Does Anna think that the book is here?,Is the book here?,early,49,mem_9,mem_K,0,1,0,switch,X-O-O,B-O-O,X-B-O,X-X-O,M,L,L,stimuli/blue-M.png,stimuli/blue-L.png,stimuli/blue-L.png,mB-R,m0,stimuli/m0_w0_X-O-O.png,stimuli/m0_wW-R_X-O-O.png,stimuli/m0_none_X-O-O.png,stimuli/mW-R_none_X-O-O.png,stimuli/mB-R_none_B-O-O.png,stimuli/mB-R_none_X-B-O.png,stimuli/mB-R_none_X-X-O.png,stimuli/mW-L_none_X-X-O.png,stimuli/m0_none_X-X-O.png,stimuli/m0_wW-L_X-X-O.png,2,5,53,20,,,,,,,,,491.57886385847814,498.2527760651428,498.990577386925,498.990577386925,498.990577386925,499.8787879566662,499.8787879566662,right,0.6543071245541796,492.63251167244744,S5,K-A,2023-01-27_13h50.07.847,knowing_that_K_ONLY,2022.2.5,60.01921581181179,
Does Anna know that the book is here?,Does Anna think that the book is here?,Is the book here?,early,36,per_8,per_K,1,0,1,switch,O-X-B,B-X-O,none,B-X-X,L,M,L,stimuli/blue-L.png,stimuli/blue-M.png,stimuli/blue-L.png,mB-L,m0,stimuli/m0_w0_O-X-B.png,stimuli/m0_wW-R_O-X-B.png,stimuli/m0_none_O-X-B.png,stimuli/mW-R_none_O-X-B.png,stimuli/mB-L_none_O-X-B.png,stimuli/mB-L_none_B-X-O.png,stimuli/mB-L_none_B-X-X.png,stimuli/mW-L_none_B-X-X.png,stimuli/m0_none_B-X-X.png,stimuli/m0_wW-L_B-X-X.png,2,6,54,7,,,,,,,,,500.56228446087334,507.2393408534117,507.97331050934736,507.97331050934736,507.97331050934736,508.86220535088796,508.86220535088796,left,0.31875758001115173,501.6209441733081,S5,K-A,2023-01-27_13h50.07.847,knowing_that_K_ONLY,2022.2.5,60.01921581181179,
Does Anna know that the book is here?,Does Anna think that the book is here?,Is the book here?,late,40,per_12,per_K,1,1,1,show,O-X-X,O-B-X,none,O-B-X,M,M,M,stimuli/blue-M.png,stimuli/blue-M.png,stimuli/blue-M.png,mB-M,m0,stimuli/m0_w0_O-X-X.png,stimuli/mW-R_w0_O-X-X.png,stimuli/mB-M_w0_O-X-X.png,stimuli/mB-M_w0_O-B-X.png,stimuli/mB-M_w0_O-B-X.png,stimuli/mW-L_w0_O-B-X.png,stimuli/m0_wW-R_O-B-X.png,stimuli/m0_none_O-B-X.png,stimuli/m0_none_O-B-X.png,stimuli/m0_wW-L_O-B-X.png,2,7,55,11,,,,,,,,,509.2121845949441,515.8883376074955,516.6224317349261,516.6224317349261,516.6224317349261,517.5121054850752,517.5121054850752,left,0.6065598322311416,510.2720874174265,S5,K-A,2023-01-27_13h50.07.847,knowing_that_K_ONLY,2022.2.5,60.01921581181179,
Does Anna know that the book is here?,Does Anna think that the book is here?,Is the book here?,early,29,per_1,per_K,1,0,1,no,B-X-X,B-O-X,none,B-X-X,L,M,L,stimuli/blue-L.png,stimuli/blue-M.png,stimuli/blue-L.png,mB-M,m0,stimuli/m0_w0_B-X-X.png,stimuli/m0_wW-R_B-X-X.png,stimuli/m0_none_B-X-X.png,stimuli/mW-R_none_B-X-X.png,stimuli/mB-M_none_B-X-X.png,stimuli/mB-M_none_B-O-X.png,stimuli/mB-M_none_B-X-X.png,stimuli/mW-L_none_B-X-X.png,stimuli/m0_none_B-X-X.png,stimuli/m0_wW-L_B-X-X.png,2,8,56,0,,,,,,,,,518.1455696203047,524.82028575812,525.55715418607,525.55715418607,525.55715418607,526.445102018537,526.445102018537,left,0.36103711335454136,519.1983846308431,S5,K-A,2023-01-27_13h50.07.847,knowing_that_K_ONLY,2022.2.5,60.01921581181179,
Does Anna know that the book is here?,Does Anna think that the book is here?,Is the book here?,early,31,per_3,per_K,1,0,1,no,O-B-X,O-B-O,none,O-B-X,M,R,M,stimuli/blue-M.png,stimuli/blue-R.png,stimuli/blue-M.png,mB-R,m0,stimuli/m0_w0_O-B-X.png,stimuli/m0_wW-R_O-B-X.png,stimuli/m0_none_O-B-X.png,stimuli/mW-R_none_O-B-X.png,stimuli/mB-R_none_O-B-X.png,stimuli/mB-R_none_O-B-O.png,stimuli/mB-R_none_O-B-X.png,stimuli/mW-L_none_O-B-X.png,stimuli/m0_none_O-B-X.png,stimuli/m0_wW-L_O-B-X.png,2,9,57,2,,,,,,,,,526.828404629603,533.5027582605835,534.2418572288007,534.2418572288007,534.2418572288007,535.1286463222932,535.1286463222932,left,0.4208998355315998,527.8863335539354,S5,K-A,2023-01-27_13h50.07.847,knowing_that_K_ONLY,2022.2.5,60.01921581181179,
Does Anna know that the book is here?,Does Anna think that the book is here?,Is the book here?,early,43,mem_3,mem_K,0,1,0,switch,O-O-X,O-O-B,B-O-X,X-O-X,L,R,R,stimuli/blue-L.png,stimuli/blue-R.png,stimuli/blue-R.png,mB-M,m0,stimuli/m0_w0_O-O-X.png,stimuli/m0_wW-R_O-O-X.png,stimuli/m0_none_O-O-X.png,stimuli/mW-R_none_O-O-X.png,stimuli/mB-M_none_O-O-B.png,stimuli/mB-M_none_B-O-X.png,stimuli/mB-M_none_X-O-X.png,stimuli/mW-L_none_X-O-X.png,stimuli/m0_none_X-O-X.png,stimuli/m0_wW-L_X-O-X.png,2,10,58,14,,,,,,,,,535.5787486904301,542.2303667223314,542.9900599323446,542.9900599323446,542.9900599323446,543.8787594052264,543.8787594052264,right,0.3269143062643707,536.638808064512,S5,K-A,2023-01-27_13h50.07.847,knowing_that_K_ONLY,2022.2.5,60.01921581181179,
Does Anna know that the book is here?,Does Anna think that the book is here?,Is the book here?,early,30,per_2,per_K,1,0,1,no,X-X-B,O-X-B,none,X-X-B,R,L,R,stimuli/blue-R.png,stimuli/blue-L.png,stimuli/blue-R.png,mB-L,m0,stimuli/m0_w0_X-X-B.png,stimuli/m0_wW-R_X-X-B.png,stimuli/m0_none_X-X-B.png,stimuli/mW-R_none_X-X-B.png,stimuli/mB-L_none_X-X-B.png,stimuli/mB-L_none_O-X-B.png,stimuli/mB-L_none_X-X-B.png,stimuli/mW-L_none_X-X-B.png,stimuli/m0_none_X-X-B.png,stimuli/m0_wW-L_X-X-B.png,2,11,59,1,,,,,,,,,544.2286286139861,550.9049259877065,551.6438106597634,551.6438106597634,551.6438106597634,552.5284407519503,552.5284407519503,left,0.38890362868551165,545.2911530351266,S5,K-A,2023-01-27_13h50.07.847,knowing_that_K_ONLY,2022.2.5,60.01921581181179,
Does Anna know that the book is here?,Does Anna think that the book is here?,Is the book here?,early,37,per_9,per_K,1,0,1,switch,X-O-B,X-B-O,none,X-B-X,M,R,M,stimuli/blue-M.png,stimuli/blue-R.png,stimuli/blue-M.png,mB-R,m0,stimuli/m0_w0_X-O-B.png,stimuli/m0_wW-R_X-O-B.png,stimuli/m0_none_X-O-B.png,stimuli/mW-R_none_X-O-B.png,stimuli/mB-R_none_X-O-B.png,stimuli/mB-R_none_X-B-O.png,stimuli/mB-R_none_X-B-X.png,stimuli/mW-L_none_X-B-X.png,stimuli/m0_none_X-B-X.png,stimuli/m0_wW-L_X-B-X.png,2,12,60,8,,,,,,,,,552.9453021993395,559.6199397405144,560.3603386007017,560.3603386007017,560.3603386007017,561.2453703377396,561.2453703377396,left,0.33653998747467995,553.9928214008687,S5,K-A,2023-01-27_13h50.07.847,knowing_that_K_ONLY,2022.2.5,60.01921581181179,
Does Anna know that the book is here?,Does Anna think that the book is here?,Is the book here?,late,50,mem_10,mem_K,1,1,1,show,O-O-X,O-O-B,O-B-X,O-X-X,M,M,M,stimuli/blue-M.png,stimuli/blue-M.png,stimuli/blue-M.png,mB-L,m0,stimuli/m0_w0_O-O-X.png,stimuli/mW-R_w0_O-O-X.png,stimuli/mB-L_w0_O-O-B.png,stimuli/mB-L_w0_O-B-X.png,stimuli/mB-L_w0_O-X-X.png,stimuli/mW-L_w0_O-X-X.png,stimuli/m0_wW-R_O-X-X.png,stimuli/m0_none_O-X-X.png,stimuli/m0_none_O-X-X.png,stimuli/m0_wW-L_O-X-X.png,2,13,61,21,,,,,,,,,561.6121288394788,568.2636708412319,569.0278299439233,569.0278299439233,569.0278299439233,569.9112650464522,569.9112650464522,left,0.33483684656675905,562.6653589685448,S5,K-A,2023-01-27_13h50.07.847,knowing_that_K_ONLY,2022.2.5,60.01921581181179,
Does Anna know that the book is here?,Does Anna think that the book is here?,Is the book here?,early,41,mem_1,mem_K,0,1,0,switch,O-O-X,O-O-B,O-B-X,O-X-X,M,R,R,stimuli/blue-M.png,stimuli/blue-R.png,stimuli/blue-R.png,mB-L,m0,stimuli/m0_w0_O-O-X.png,stimuli/m0_wW-R_O-O-X.png,stimuli/m0_none_O-O-X.png,stimuli/mW-R_none_O-O-X.png,stimuli/mB-L_none_O-O-B.png,stimuli/mB-L_none_O-B-X.png,stimuli/mB-L_none_O-X-X.png,stimuli/mW-L_none_O-X-X.png,stimuli/m0_none_O-X-X.png,stimuli/m0_wW-L_O-X-X.png,2,14,62,12,,,,,,,,,570.262297485373,576.9152404319029,577.6747366692871,577.6747366692871,577.6747366692871,578.5623062753584,578.5623062753584,right,0.33897070854436606,571.3208468419034,S5,K-A,2023-01-27_13h50.07.847,knowing_that_K_ONLY,2022.2.5,60.01921581181179,
Does Anna know that the book is here?,Does Anna think that the book is here?,Is the book here?,late,38,per_10,per_K,1,1,1,show,X-X-X,X-O-X,none,X-O-B,R,R,R,stimuli/blue-R.png,stimuli/blue-R.png,stimuli/blue-R.png,mB-R,m0,stimuli/m0_w0_X-X-X.png,stimuli/mW-R_w0_X-X-X.png,stimuli/mB-R_w0_X-X-X.png,stimuli/mB-R_w0_X-O-X.png,stimuli/mB-R_w0_X-O-B.png,stimuli/mW-L_w0_X-O-B.png,stimuli/m0_wW-R_X-O-B.png,stimuli/m0_none_X-O-B.png,stimuli/m0_none_X-O-B.png,stimuli/m0_wW-L_X-O-B.png,2,15,63,9,,,,,,,,,578.928743012133,585.6021056839963,586.3417002921924,586.3417002921924,586.3417002921924,587.2283809543587,587.2283809543587,left,0.794250188395381,579.9896050343523,S5,K-A,2023-01-27_13h50.07.847,knowing_that_K_ONLY,2022.2.5,60.01921581181179,
Does Anna know that the book is here?,Does Anna think that the book is here?,Is the book here?,early,42,mem_2,mem_K,0,1,0,switch,O-O-X,O-O-B,B-O-X,X-O-X,L,R,R,stimuli/blue-L.png,stimuli/blue-R.png,stimuli/blue-R.png,mB-M,m0,stimuli/m0_w0_O-O-X.png,stimuli/m0_wW-R_O-O-X.png,stimuli/m0_none_O-O-X.png,stimuli/mW-R_none_O-O-X.png,stimuli/mB-M_none_O-O-B.png,stimuli/mB-M_none_B-O-X.png,stimuli/mB-M_none_X-O-X.png,stimuli/mW-L_none_X-O-X.png,stimuli/m0_none_X-O-X.png,stimuli/m0_wW-L_X-O-X.png,2,16,64,13,,,,,,,,,588.0454898045864,594.7221487228526,595.4584480470512,595.4584480470512,595.4584480470512,596.3455473566428,596.3455473566428,right,0.33168496133293957,589.1072099737357,S5,K-A,2023-01-27_13h50.07.847,knowing_that_K_ONLY,2022.2.5,60.01921581181179,
Does Anna know that the book is here?,Does Anna think that the book is here?,Is the book here?,late,52,mem_12,mem_K,1,1,1,show,X-O-O,B-O-O,X-O-B,X-O-X,R,R,R,stimuli/blue-R.png,stimuli/blue-R.png,stimuli/blue-R.png,mB-M,m0,stimuli/m0_w0_X-O-O.png,stimuli/mW-R_w0_X-O-O.png,stimuli/mB-M_w0_B-O-O.png,stimuli/mB-M_w0_X-O-B.png,stimuli/mB-M_w0_X-O-X.png,stimuli/mW-L_w0_X-O-X.png,stimuli/m0_wW-R_X-O-X.png,stimuli/m0_none_X-O-X.png,stimuli/m0_none_X-O-X.png,stimuli/m0_wW-L_X-O-X.png,2,17,65,23,,,,,,,,,596.6955156933982,603.3705728444038,604.1092791502597,604.1092791502597,604.1092791502597,604.9957018871792,604.9957018871792,right,0.9153868432622403,597.7487156669376,S5,K-A,2023-01-27_13h50.07.847,knowing_that_K_ONLY,2022.2.5,60.01921581181179,
Does Anna know that the book is here?,Does Anna think that the book is here?,Is the book here?,early,46,mem_6,mem_K,0,1,0,switch,O-X-O,O-B-O,O-X-B,O-X-X,R,M,M,stimuli/blue-R.png,stimuli/blue-M.png,stimuli/blue-M.png,mB-L,m0,stimuli/m0_w0_O-X-O.png,stimuli/m0_wW-R_O-X-O.png,stimuli/m0_none_O-X-O.png,stimuli/mW-R_none_O-X-O.png,stimuli/mB-L_none_O-B-O.png,stimuli/mB-L_none_O-X-B.png,stimuli/mB-L_none_O-X-X.png,stimuli/mW-L_none_O-X-X.png,stimuli/m0_none_O-X-X.png,stimuli/m0_wW-L_O-X-X.png,2,18,66,17,,,,,,,,,605.9290830629179,612.6026334041962,613.341427610023,613.341427610023,613.341427610023,614.2288477221737,614.2288477221737,right,0.49698907253332436,606.9815968397306,S5,K-A,2023-01-27_13h50.07.847,knowing_that_K_ONLY,2022.2.5,60.01921581181179,
Does Anna know that the book is here?,Does Anna think that the book is here?,Is the book here?,early,45,mem_5,mem_K,0,1,0,switch,O-X-O,O-B-O,B-X-O,X-X-O,L,M,M,stimuli/blue-L.png,stimuli/blue-M.png,stimuli/blue-M.png,mB-R,m0,stimuli/m0_w0_O-X-O.png,stimuli/m0_wW-R_O-X-O.png,stimuli/m0_none_O-X-O.png,stimuli/mW-R_none_O-X-O.png,stimuli/mB-R_none_O-B-O.png,stimuli/mB-R_none_B-X-O.png,stimuli/mB-R_none_X-X-O.png,stimuli/mW-L_none_X-X-O.png,stimuli/m0_none_X-X-O.png,stimuli/m0_wW-L_X-X-O.png,2,19,67,16,,,,,,,,,614.7454948091181,621.4197146653896,622.1578136919998,622.1578136919998,622.1578136919998,623.045601123129,623.045601123129,right,0.7037411967758089,615.8040249174228,S5,K-A,2023-01-27_13h50.07.847,knowing_that_K_ONLY,2022.2.5,60.01921581181179,
Does Anna know that the book is here?,Does Anna think that the book is here?,Is the book here?,late,34,per_6,per_K,1,0,1,no,X-B-X,O-B-X,none,X-B-X,M,R,M,stimuli/blue-M.png,stimuli/blue-R.png,stimuli/blue-M.png,mB-L,m0,stimuli/m0_w0_X-B-X.png,stimuli/mW-R_w0_X-B-X.png,stimuli/mB-L_w0_X-B-X.png,stimuli/mB-L_w0_O-B-X.png,stimuli/mB-L_w0_X-B-X.png,stimuli/mW-L_w0_X-B-X.png,stimuli/m0_wW-R_X-B-X.png,stimuli/m0_none_X-B-X.png,stimuli/m0_none_X-B-X.png,stimuli/m0_wW-L_X-B-X.png,2,20,68,5,,,,,,,,,623.7788043817272,630.430040658568,631.1908823418198,631.1908823418198,631.1908823418198,632.0788237581728,632.0788237581728,left,0.7117368800099939,624.815523764817,S5,K-A,2023-01-27_13h50.07.847,knowing_that_K_ONLY,2022.2.5,60.01921581181179,
Does Anna know that the book is here?,Does Anna think that the book is here?,Is the book here?,early,48,mem_8,mem_K,0,1,0,switch,X-O-O,B-O-O,X-B-O,X-X-O,M,L,L,stimuli/blue-M.png,stimuli/blue-L.png,stimuli/blue-L.png,mB-R,m0,stimuli/m0_w0_X-O-O.png,stimuli/m0_wW-R_X-O-O.png,stimuli/m0_none_X-O-O.png,stimuli/mW-R_none_X-O-O.png,stimuli/mB-R_none_B-O-O.png,stimuli/mB-R_none_X-B-O.png,stimuli/mB-R_none_X-X-O.png,stimuli/mW-L_none_X-X-O.png,stimuli/m0_none_X-X-O.png,stimuli/m0_wW-L_X-X-O.png,2,21,69,19,,,,,,,,,632.8122791675851,639.4858696091687,640.225572648691,640.225572648691,640.225572648691,641.1122815415729,641.1122815415729,right,0.4462069879518822,633.8740166599164,S5,K-A,2023-01-27_13h50.07.847,knowing_that_K_ONLY,2022.2.5,60.01921581181179,
Does Anna know that the book is here?,Does Anna think that the book is here?,Is the book here?,early,47,mem_7,mem_K,0,1,0,switch,X-O-O,B-O-O,X-O-B,X-O-X,R,L,L,stimuli/blue-R.png,stimuli/blue-L.png,stimuli/blue-L.png,mB-M,m0,stimuli/m0_w0_X-O-O.png,stimuli/m0_wW-R_X-O-O.png,stimuli/m0_none_X-O-O.png,stimuli/mW-R_none_X-O-O.png,stimuli/mB-M_none_B-O-O.png,stimuli/mB-M_none_X-O-B.png,stimuli/mB-M_none_X-O-X.png,stimuli/mW-L_none_X-O-X.png,stimuli/m0_none_X-O-X.png,stimuli/m0_wW-L_X-O-X.png,2,22,70,18,,,,,,,,,641.5788192669861,648.2504345271736,648.9894369337708,648.9894369337708,648.9894369337708,649.8790035359561,649.8790035359561,right,0.4391583137912676,642.6339572088327,S5,K-A,2023-01-27_13h50.07.847,knowing_that_K_ONLY,2022.2.5,60.01921581181179,
Does Anna know that the book is here?,Does Anna think that the book is here?,Is the book here?,early,35,per_7,per_K,1,0,1,switch,B-X-O,O-X-B,none,X-X-B,R,L,R,stimuli/blue-R.png,stimuli/blue-L.png,stimuli/blue-R.png,mB-R,m0,stimuli/m0_w0_B-X-O.png,stimuli/m0_wW-R_B-X-O.png,stimuli/m0_none_B-X-O.png,stimuli/mW-R_none_B-X-O.png,stimuli/mB-R_none_B-X-O.png,stimuli/mB-R_none_O-X-B.png,stimuli/mB-R_none_X-X-B.png,stimuli/mW-L_none_X-X-B.png,stimuli/m0_none_X-X-B.png,stimuli/m0_wW-L_X-X-B.png,2,23,71,6,,,,,,,,,650.3454876873875,656.9969783606939,657.7561400008854,657.7561400008854,657.7561400008854,658.6456478961045,658.6456478961045,left,0.00762335688341409,651.400024765986,S5,K-A,2023-01-27_13h50.07.847,knowing_that_K_ONLY,2022.2.5,60.01921581181179,
