K_text,B_text,T_text,Anna_exit,trial_num,trial_code,cond,K_hit,B_hit,T_hit,book_move,start_shelf,mid_shelf,end_shelf,rectangle,rectangle_path,Todd_mid,Todd_final,frame_1,frame_2,frame_3,frame_4,frame_5,frame_6,frame_7,frame_8,frame_9,frame_10,trials.thisRepN,trials.thisTrialN,trials.thisN,trials.thisIndex,frames.thisRepN,frames.thisTrialN,frames.thisN,frames.thisIndex,sessionInst.started,startSession.started,startSession.keys,startSession.rt,crossText.started,movingImage.started,staticImage.started,promptText3.started,rectImage.started,respText.started,keyResp.started,keyResp.keys,keyResp.rt,crossText.stopped,subject,session,date,expName,psychopyVersion,frameRate,
,,,,,,,,,,,,,,,,,,,,,,,,,,,,,,,,,,,,14.851331106154248,14.851331106154248,left,32.00361375894863,,,,,,,,,,,S5,T-M,2023-01-27_13h10.10.050,knowing_that_K_ONLY,2022.2.5,59.73844635793314,
Does Anna know that the book is here?,Does Anna think that the book is here?,Is the book here?,late,18,mem_9,mem_K,1,1,1,switch,X-O-B,X-B-O,X-X-O,M,stimuli/blue-M.png,mB-L,m0,stimuli/m0_w0_X-O-B.png,stimuli/mW-R_w0_X-O-B.png,stimuli/mB-L_w0_X-O-B.png,stimuli/mB-L_w0_X-B-O.png,stimuli/mB-L_w0_X-X-O.png,stimuli/mW-L_w0_X-X-O.png,stimuli/m0_wW-R_X-X-O.png,stimuli/m0_none_X-X-O.png,stimuli/m0_none_X-X-O.png,stimuli/m0_wW-L_X-X-O.png,0,0,0,17,,,,,,,,,46.914916100446135,53.54728661978152,54.30609024432488,54.30609024432488,54.30609024432488,55.174545150017366,55.174545150017366,right,0.9911900379229337,,S5,T-M,2023-01-27_13h10.10.050,knowing_that_K_ONLY,2022.2.5,59.73844635793314,
Does Anna know that the book is here?,Does Anna think that the book is here?,Is the book here?,early,3,per_3,per_K,1,1,1,no,O-B-X,O-B-O,O-B-X,M,stimuli/blue-M.png,mB-R,m0,stimuli/m0_w0_O-B-X.png,stimuli/m0_wW-R_O-B-X.png,stimuli/m0_none_O-B-X.png,stimuli/mW-R_none_O-B-X.png,stimuli/mB-R_none_O-B-X.png,stimuli/mB-R_none_O-B-O.png,stimuli/mB-R_none_O-B-X.png,stimuli/mW-L_none_O-B-X.png,stimuli/m0_none_O-B-X.png,stimuli/m0_wW-L_O-B-X.png,0,1,1,2,,,,,,,,,56.19119319948368,62.86231987737119,63.58617270342074,63.58617270342074,63.58617270342074,64.4912337489659,64.4912337489659,left,0.547267610556446,57.253917801426724,S5,T-M,2023-01-27_13h10.10.050,knowing_that_K_ONLY,2022.2.5,59.73844635793314,
Does Anna know that the book is here?,Does Anna think that the book is here?,Is the book here?,late,16,mem_7,mem_K,1,1,1,switch,B-X-O,O-X-B,O-X-X,R,stimuli/blue-R.png,mB-M,m0,stimuli/m0_w0_B-X-O.png,stimuli/mW-R_w0_B-X-O.png,stimuli/mB-M_w0_B-X-O.png,stimuli/mB-M_w0_O-X-B.png,stimuli/mB-M_w0_O-X-X.png,stimuli/mW-L_w0_O-X-X.png,stimuli/m0_wW-R_O-X-X.png,stimuli/m0_none_O-X-X.png,stimuli/m0_none_O-X-X.png,stimuli/m0_wW-L_O-X-X.png,0,2,2,15,,,,,,,,,65.05782530503348,71.73087551514618,72.4729605136672,72.4729605136672,72.4729605136672,73.35783666139469,73.35783666139469,left,0.43214728694874793,66.10738160298206,S5,T-M,2023-01-27_13h10.10.050,knowing_that_K_ONLY,2022.2.5,59.73844635793314,
Does Anna know that the book is here?,Does Anna think that the book is here?,Is the book here?,late,14,mem_5,mem_K,1,1,1,no,O-B-X,O-B-X,O-X-X,M,stimuli/blue-M.png,mB-L,m0,stimuli/m0_w0_O-B-X.png,stimuli/mW-R_w0_O-B-X.png,stimuli/mB-L_w0_O-B-X.png,stimuli/mB-L_w0_O-B-X.png,stimuli/mB-L_w0_O-X-X.png,stimuli/mW-L_w0_O-X-X.png,stimuli/m0_wW-R_O-X-X.png,stimuli/m0_none_O-X-X.png,stimuli/m0_none_O-X-X.png,stimuli/m0_wW-L_O-X-X.png,0,3,3,13,,,,,,,,,73.8078431095928,80.47919434926007,81.21882135851774,81.21882135851774,81.21882135851774,82.10790066153277,82.10790066153277,left,0.5058827956672758,74.85936368163675,S5,T-M,2023-01-27_13h10.10.050,knowing_that_K_ONLY,2022.2.5,59.73844635793314,
Does Anna know that the book is here?,Does Anna think that the book is here?,Is the book here?,late,12,mem_3,mem_K,1,1,1,no,X-O-B,X-O-B,X-O-X,R,stimuli/blue-R.png,mB-M,m0,stimuli/m0_w0_X-O-B.png,stimuli/mW-R_w0_X-O-B.png,stimuli/mB-M_w0_X-O-B.png,stimuli/mB-M_w0_X-O-B.png,stimuli/mB-M_w0_X-O-X.png,stimuli/mW-L_w0_X-O-X.png,stimuli/m0_wW-R_X-O-X.png,stimuli/m0_none_X-O-X.png,stimuli/m0_none_X-O-X.png,stimuli/m0_wW-L_X-O-X.png,0,4,4,11,,,,,,,,,82.64124295592774,89.31201161816716,90.05673425551504,90.05673425551504,90.05673425551504,90.94110770558473,90.94110770558473,left,0.4171391803538427,83.69592343340628,S5,T-M,2023-01-27_13h10.10.050,knowing_that_K_ONLY,2022.2.5,59.73844635793314,
Does Anna know that the book is here?,Does Anna think that the book is here?,Is the book here?,late,17,mem_8,mem_K,1,1,1,switch,O-X-B,B-X-O,X-X-O,L,stimuli/blue-L.png,mB-M,m0,stimuli/m0_w0_O-X-B.png,stimuli/mW-R_w0_O-X-B.png,stimuli/mB-M_w0_O-X-B.png,stimuli/mB-M_w0_B-X-O.png,stimuli/mB-M_w0_X-X-O.png,stimuli/mW-L_w0_X-X-O.png,stimuli/m0_wW-R_X-X-O.png,stimuli/m0_none_X-X-O.png,stimuli/m0_none_X-X-O.png,stimuli/m0_wW-L_X-X-O.png,0,5,5,16,,,,,,,,,91.37456266593654,98.0445921990322,98.78688796481583,98.78688796481583,98.78688796481583,99.67469977692235,99.67469977692235,left,0.46836878452450037,92.43722471129149,S5,T-M,2023-01-27_13h10.10.050,knowing_that_K_ONLY,2022.2.5,59.73844635793314,
Does Anna know that the book is here?,Does Anna think that the book is here?,Is the book here?,early,19,no_1,no_K,0,0,0,no,X-X-X,O-X-X,X-X-X,L,stimuli/blue-L.png,mB-L,m0,stimuli/m0_w0_X-X-X.png,stimuli/m0_wW-R_X-X-X.png,stimuli/m0_none_X-X-X.png,stimuli/mW-R_none_X-X-X.png,stimuli/mB-L_none_X-X-X.png,stimuli/mB-L_none_O-X-X.png,stimuli/mB-L_none_X-X-X.png,stimuli/mW-L_none_X-X-X.png,stimuli/m0_none_X-X-X.png,stimuli/m0_wW-L_X-X-X.png,0,6,6,18,,,,,,,,,100.17479954648297,106.84686136385426,107.58916803705506,107.58916803705506,107.58916803705506,108.47445737849921,108.47445737849921,right,0.6599418142577633,101.22976970870513,S5,T-M,2023-01-27_13h10.10.050,knowing_that_K_ONLY,2022.2.5,59.73844635793314,
Does Anna know that the book is here?,Does Anna think that the book is here?,Is the book here?,early,24,no_6,no_K,0,0,0,no,X-X-X,X-X-O,X-X-X,R,stimuli/blue-R.png,mB-R,m0,stimuli/m0_w0_X-X-X.png,stimuli/m0_wW-R_X-X-X.png,stimuli/m0_none_X-X-X.png,stimuli/mW-R_none_X-X-X.png,stimuli/mB-R_none_X-X-X.png,stimuli/mB-R_none_X-X-O.png,stimuli/mB-R_none_X-X-X.png,stimuli/mW-L_none_X-X-X.png,stimuli/m0_none_X-X-X.png,stimuli/m0_wW-L_X-X-X.png,0,7,7,23,,,,,,,,,109.15795741148759,115.8318423499586,116.56838067201898,116.56838067201898,116.56838067201898,117.45779649692122,117.45779649692122,right,0.7095324380788952,110.20737736835144,S5,T-M,2023-01-27_13h10.10.050,knowing_that_K_ONLY,2022.2.5,59.73844635793314,
Does Anna know that the book is here?,Does Anna think that the book is here?,Is the book here?,early,26,no_8,no_K,0,0,0,hide,X-B-O,O-B-O,X-O-X,R,stimuli/blue-R.png,mB-L,m0,stimuli/m0_w0_X-B-O.png,stimuli/m0_wW-R_X-B-O.png,stimuli/m0_none_X-B-O.png,stimuli/mW-R_none_X-B-O.png,stimuli/mB-L_none_X-B-O.png,stimuli/mB-L_none_O-B-O.png,stimuli/mB-L_none_X-O-X.png,stimuli/mW-L_none_X-O-X.png,stimuli/m0_none_X-O-X.png,stimuli/m0_wW-L_X-O-X.png,0,8,8,25,,,,,,,,,118.19108733464964,124.86522442381829,125.60114359704312,125.60114359704312,125.60114359704312,126.49155711790081,126.49155711790081,right,0.7148686681175604,119.24237115448341,S5,T-M,2023-01-27_13h10.10.050,knowing_that_K_ONLY,2022.2.5,59.73844635793314,
Does Anna know that the book is here?,Does Anna think that the book is here?,Is the book here?,early,28,no_10,no_K,0,0,0,hide,O-B-O,O-B-O,X-O-X,L,stimuli/blue-L.png,mB-M,m0,stimuli/m0_w0_O-B-O.png,stimuli/m0_wW-R_O-B-O.png,stimuli/m0_none_O-B-O.png,stimuli/mW-R_none_O-B-O.png,stimuli/mB-M_none_O-B-O.png,stimuli/mB-M_none_O-B-O.png,stimuli/mB-M_none_X-O-X.png,stimuli/mW-L_none_X-O-X.png,stimuli/m0_none_X-O-X.png,stimuli/m0_wW-L_X-O-X.png,0,9,9,27,,,,,,,,,127.2246442460455,133.8977162706433,134.63707316410728,134.63707316410728,134.63707316410728,135.5248394223163,135.5248394223163,right,0.6818086799466982,128.2831554269651,S5,T-M,2023-01-27_13h10.10.050,knowing_that_K_ONLY,2022.2.5,59.73844635793314,
Does Anna know that the book is here?,Does Anna think that the book is here?,Is the book here?,late,6,per_6,per_K,1,1,1,no,X-B-X,O-B-X,X-B-X,M,stimuli/blue-M.png,mB-L,m0,stimuli/m0_w0_X-B-X.png,stimuli/mW-R_w0_X-B-X.png,stimuli/mB-L_w0_X-B-X.png,stimuli/mB-L_w0_O-B-X.png,stimuli/mB-L_w0_X-B-X.png,stimuli/mW-L_w0_X-B-X.png,stimuli/m0_wW-R_X-B-X.png,stimuli/m0_none_X-B-X.png,stimuli/m0_none_X-B-X.png,stimuli/m0_wW-L_X-B-X.png,0,10,10,5,,,,,,,,,136.22490088804625,142.89881822746247,143.6364623560803,143.6364623560803,143.6364623560803,144.52433447900694,144.52433447900694,left,0.4743482236517593,137.2847501365468,S5,T-M,2023-01-27_13h10.10.050,knowing_that_K_ONLY,2022.2.5,59.73844635793314,
Does Anna know that the book is here?,Does Anna think that the book is here?,Is the book here?,early,2,per_2,per_K,1,1,1,no,X-X-B,O-X-B,X-X-B,R,stimuli/blue-R.png,mB-L,m0,stimuli/m0_w0_X-X-B.png,stimuli/m0_wW-R_X-X-B.png,stimuli/m0_none_X-X-B.png,stimuli/mW-R_none_X-X-B.png,stimuli/mB-L_none_X-X-B.png,stimuli/mB-L_none_O-X-B.png,stimuli/mB-L_none_X-X-B.png,stimuli/mW-L_none_X-X-B.png,stimuli/m0_none_X-X-B.png,stimuli/m0_wW-L_X-X-B.png,0,11,11,1,,,,,,,,,145.02454685035627,151.69734490965493,152.43647242931183,152.43647242931183,152.43647242931183,153.324846608215,153.324846608215,left,0.44904299604240805,146.084118283703,S5,T-M,2023-01-27_13h10.10.050,knowing_that_K_ONLY,2022.2.5,59.73844635793314,
Does Anna know that the book is here?,Does Anna think that the book is here?,Is the book here?,early,27,no_9,no_K,0,0,0,hide,X-X-B,O-O-B,X-X-O,L,stimuli/blue-L.png,mB-M,m0,stimuli/m0_w0_X-X-B.png,stimuli/m0_wW-R_X-X-B.png,stimuli/m0_none_X-X-B.png,stimuli/mW-R_none_X-X-B.png,stimuli/mB-M_none_X-X-B.png,stimuli/mB-M_none_O-O-B.png,stimuli/mB-M_none_X-X-O.png,stimuli/mW-L_none_X-X-O.png,stimuli/m0_none_X-X-O.png,stimuli/m0_wW-L_X-X-O.png,0,12,12,26,,,,,,,,,153.791363160708,160.46426034800243,161.2032001981279,161.2032001981279,161.2032001981279,162.0913655346958,162.0913655346958,right,0.7799245422938839,154.84475016221404,S5,T-M,2023-01-27_13h10.10.050,knowing_that_K_ONLY,2022.2.5,59.73844635793314,
Does Anna know that the book is here?,Does Anna think that the book is here?,Is the book here?,late,13,mem_4,mem_K,1,1,1,no,B-X-O,B-X-O,X-X-O,L,stimuli/blue-L.png,mB-M,m0,stimuli/m0_w0_B-X-O.png,stimuli/mW-R_w0_B-X-O.png,stimuli/mB-M_w0_B-X-O.png,stimuli/mB-M_w0_B-X-O.png,stimuli/mB-M_w0_X-X-O.png,stimuli/mW-L_w0_X-X-O.png,stimuli/m0_wW-R_X-X-O.png,stimuli/m0_none_X-X-O.png,stimuli/m0_none_X-X-O.png,stimuli/m0_wW-L_X-X-O.png,0,13,13,12,,,,,,,,,162.8915783551056,169.5641579477815,170.3005243197549,170.3005243197549,170.3005243197549,171.191241640714,171.191241640714,right,0.5185496850172058,163.94602111773565,S5,T-M,2023-01-27_13h10.10.050,knowing_that_K_ONLY,2022.2.5,59.73844635793314,
Does Anna know that the book is here?,Does Anna think that the book is here?,Is the book here?,late,4,per_4,per_K,1,1,1,no,O-X-B,O-O-B,O-X-B,R,stimuli/blue-R.png,mB-M,m0,stimuli/m0_w0_O-X-B.png,stimuli/mW-R_w0_O-X-B.png,stimuli/mB-M_w0_O-X-B.png,stimuli/mB-M_w0_O-O-B.png,stimuli/mB-M_w0_O-X-B.png,stimuli/mW-L_w0_O-X-B.png,stimuli/m0_wW-R_O-X-B.png,stimuli/m0_none_O-X-B.png,stimuli/m0_none_O-X-B.png,stimuli/m0_wW-L_O-X-B.png,0,14,14,3,,,,,,,,,171.74101191398222,178.41494368948042,179.15669986547437,179.15669986547437,179.15669986547437,180.04153687530197,180.04153687530197,left,0.28474107198417187,172.7963230892783,S5,T-M,2023-01-27_13h10.10.050,knowing_that_K_ONLY,2022.2.5,59.73844635793314,
Does Anna know that the book is here?,Does Anna think that the book is here?,Is the book here?,late,5,per_5,per_K,1,1,1,no,X-B-O,O-B-O,X-B-O,M,stimuli/blue-M.png,mB-L,m0,stimuli/m0_w0_X-B-O.png,stimuli/mW-R_w0_X-B-O.png,stimuli/mB-L_w0_X-B-O.png,stimuli/mB-L_w0_O-B-O.png,stimuli/mB-L_w0_X-B-O.png,stimuli/mW-L_w0_X-B-O.png,stimuli/m0_wW-R_X-B-O.png,stimuli/m0_none_X-B-O.png,stimuli/m0_none_X-B-O.png,stimuli/m0_wW-L_X-B-O.png,0,15,15,4,,,,,,,,,180.35796017048415,187.03178576030768,187.77367410692386,187.77367410692386,187.77367410692386,188.65808380779345,188.65808380779345,left,0.4450105077121407,181.41926233377308,S5,T-M,2023-01-27_13h10.10.050,knowing_that_K_ONLY,2022.2.5,59.73844635793314,
Does Anna know that the book is here?,Does Anna think that the book is here?,Is the book here?,early,23,no_5,no_K,0,0,0,no,X-O-X,X-O-O,X-O-X,R,stimuli/blue-R.png,mB-R,m0,stimuli/m0_w0_X-O-X.png,stimuli/m0_wW-R_X-O-X.png,stimuli/m0_none_X-O-X.png,stimuli/mW-R_none_X-O-X.png,stimuli/mB-R_none_X-O-X.png,stimuli/mB-R_none_X-O-O.png,stimuli/mB-R_none_X-O-X.png,stimuli/mW-L_none_X-O-X.png,stimuli/m0_none_X-O-X.png,stimuli/m0_wW-L_X-O-X.png,0,16,16,22,,,,,,,,,189.12478097202256,195.79965205758344,196.53528058354277,196.53528058354277,196.53528058354277,197.4247589650331,197.4247589650331,right,0.5259361643111333,190.1799028738169,S5,T-M,2023-01-27_13h10.10.050,knowing_that_K_ONLY,2022.2.5,59.73844635793314,
Does Anna know that the book is here?,Does Anna think that the book is here?,Is the book here?,early,22,no_4,no_K,0,0,0,no,O-X-X,O-O-X,O-X-X,M,stimuli/blue-M.png,mB-M,m0,stimuli/m0_w0_O-X-X.png,stimuli/m0_wW-R_O-X-X.png,stimuli/m0_none_O-X-X.png,stimuli/mW-R_none_O-X-X.png,stimuli/mB-M_none_O-X-X.png,stimuli/mB-M_none_O-O-X.png,stimuli/mB-M_none_O-X-X.png,stimuli/mW-L_none_O-X-X.png,stimuli/m0_none_O-X-X.png,stimuli/m0_wW-L_O-X-X.png,0,17,17,21,,,,,,,,,197.97477240662556,204.6467591561377,205.38387716852594,205.38387716852594,205.38387716852594,206.27497335732915,206.27497335732915,right,0.6919697806006297,199.0284968924243,S5,T-M,2023-01-27_13h10.10.050,knowing_that_K_ONLY,2022.2.5,59.73844635793314,
Does Anna know that the book is here?,Does Anna think that the book is here?,Is the book here?,early,9,per_9,per_K,1,1,1,switch,X-O-B,X-B-O,X-B-X,M,stimuli/blue-M.png,mB-R,m0,stimuli/m0_w0_X-O-B.png,stimuli/m0_wW-R_X-O-B.png,stimuli/m0_none_X-O-B.png,stimuli/mW-R_none_X-O-B.png,stimuli/mB-R_none_X-O-B.png,stimuli/mB-R_none_X-B-O.png,stimuli/mB-R_none_X-B-X.png,stimuli/mW-L_none_X-B-X.png,stimuli/m0_none_X-B-X.png,stimuli/m0_wW-L_X-B-X.png,0,18,18,8,,,,,,,,,206.99142494727857,213.66688791348133,214.40272399876267,214.40272399876267,214.40272399876267,215.29159638413694,215.29159638413694,left,0.2987373674986884,208.04305651702452,S5,T-M,2023-01-27_13h10.10.050,knowing_that_K_ONLY,2022.2.5,59.73844635793314,
Does Anna know that the book is here?,Does Anna think that the book is here?,Is the book here?,early,1,per_1,per_K,1,1,1,no,B-X-X,B-O-X,B-X-X,L,stimuli/blue-L.png,mB-M,m0,stimuli/m0_w0_B-X-X.png,stimuli/m0_wW-R_B-X-X.png,stimuli/m0_none_B-X-X.png,stimuli/mW-R_none_B-X-X.png,stimuli/mB-M_none_B-X-X.png,stimuli/mB-M_none_B-O-X.png,stimuli/mB-M_none_B-X-X.png,stimuli/mW-L_none_B-X-X.png,stimuli/m0_none_B-X-X.png,stimuli/m0_wW-L_B-X-X.png,0,19,19,0,,,,,,,,,215.60843287303578,222.28161525377072,223.01929787860718,223.01929787860718,223.01929787860718,223.90815358236432,223.90815358236432,left,0.3315477712312713,216.66305945557542,S5,T-M,2023-01-27_13h10.10.050,knowing_that_K_ONLY,2022.2.5,59.73844635793314,
Does Anna know that the book is here?,Does Anna think that the book is here?,Is the book here?,early,25,no_7,no_K,0,0,0,hide,B-X-X,B-O-O,O-X-X,M,stimuli/blue-M.png,mB-L,m0,stimuli/m0_w0_B-X-X.png,stimuli/m0_wW-R_B-X-X.png,stimuli/m0_none_B-X-X.png,stimuli/mW-R_none_B-X-X.png,stimuli/mB-L_none_B-X-X.png,stimuli/mB-L_none_B-O-O.png,stimuli/mB-L_none_O-X-X.png,stimuli/mW-L_none_O-X-X.png,stimuli/m0_none_O-X-X.png,stimuli/m0_wW-L_O-X-X.png,0,20,20,24,,,,,,,,,224.2581228815252,230.92863778886385,231.66672590817325,231.66672590817325,231.66672590817325,232.55813520029187,232.55813520029187,right,0.33634697762317955,225.3201118831057,S5,T-M,2023-01-27_13h10.10.050,knowing_that_K_ONLY,2022.2.5,59.73844635793314,
Does Anna know that the book is here?,Does Anna think that the book is here?,Is the book here?,late,11,mem_2,mem_K,1,1,1,no,O-B-O,O-B-X,O-X-X,M,stimuli/blue-M.png,mB-L,m0,stimuli/m0_w0_O-B-O.png,stimuli/mW-R_w0_O-B-O.png,stimuli/mB-L_w0_O-B-O.png,stimuli/mB-L_w0_O-B-X.png,stimuli/mB-L_w0_O-X-X.png,stimuli/mW-L_w0_O-X-X.png,stimuli/m0_wW-R_O-X-X.png,stimuli/m0_none_O-X-X.png,stimuli/m0_none_O-X-X.png,stimuli/m0_wW-L_O-X-X.png,0,21,21,10,,,,,,,,,232.92481253901497,239.59553981770296,240.30848888517357,240.30848888517357,240.30848888517357,241.2248094592942,241.2248094592942,left,0.398542576120235,233.98370322934352,S5,T-M,2023-01-27_13h10.10.050,knowing_that_K_ONLY,2022.2.5,59.73844635793314,
Does Anna know that the book is here?,Does Anna think that the book is here?,Is the book here?,early,21,no_3,no_K,0,0,0,no,X-X-O,X-O-O,X-X-O,M,stimuli/blue-M.png,mB-M,m0,stimuli/m0_w0_X-X-O.png,stimuli/m0_wW-R_X-X-O.png,stimuli/m0_none_X-X-O.png,stimuli/mW-R_none_X-X-O.png,stimuli/mB-M_none_X-X-O.png,stimuli/mB-M_none_X-O-O.png,stimuli/mB-M_none_X-X-O.png,stimuli/mW-L_none_X-X-O.png,stimuli/m0_none_X-X-O.png,stimuli/m0_wW-L_X-X-O.png,0,22,22,20,,,,,,,,,241.64150441007223,248.31650670384988,249.0532269210089,249.0532269210089,249.0532269210089,249.94150389684364,249.94150389684364,right,0.6092463464010507,242.69219570758287,S5,T-M,2023-01-27_13h10.10.050,knowing_that_K_ONLY,2022.2.5,59.73844635793314,
Does Anna know that the book is here?,Does Anna think that the book is here?,Is the book here?,early,8,per_8,per_K,1,1,1,switch,O-X-B,B-X-O,B-X-X,L,stimuli/blue-L.png,mB-L,m0,stimuli/m0_w0_O-X-B.png,stimuli/m0_wW-R_O-X-B.png,stimuli/m0_none_O-X-B.png,stimuli/mW-R_none_O-X-B.png,stimuli/mB-L_none_O-X-B.png,stimuli/mB-L_none_B-X-O.png,stimuli/mB-L_none_B-X-X.png,stimuli/mW-L_none_B-X-X.png,stimuli/m0_none_B-X-X.png,stimuli/m0_wW-L_B-X-X.png,0,23,23,7,,,,,,,,,250.5748082723003,257.2480689289514,257.9853707611328,257.9853707611328,257.9853707611328,258.87490496225655,258.87490496225655,left,0.5232860143296421,251.62911661877297,S5,T-M,2023-01-27_13h10.10.050,knowing_that_K_ONLY,2022.2.5,59.73844635793314,
Does Anna know that the book is here?,Does Anna think that the book is here?,Is the book here?,late,10,mem_1,mem_K,1,1,1,no,O-X-B,X-X-B,X-X-X,R,stimuli/blue-R.png,mB-M,m0,stimuli/m0_w0_O-X-B.png,stimuli/mW-R_w0_O-X-B.png,stimuli/mB-M_w0_O-X-B.png,stimuli/mB-M_w0_X-X-B.png,stimuli/mB-M_w0_X-X-X.png,stimuli/mW-L_w0_X-X-X.png,stimuli/m0_wW-R_X-X-X.png,stimuli/m0_none_X-X-X.png,stimuli/m0_none_X-X-X.png,stimuli/m0_wW-L_X-X-X.png,0,24,24,9,,,,,,,,,259.42498480994254,266.0959485201165,266.83734090602957,266.83734090602957,266.83734090602957,267.72501509380527,267.72501509380527,left,0.5064140446484089,260.48098635242786,S5,T-M,2023-01-27_13h10.10.050,knowing_that_K_ONLY,2022.2.5,59.73844635793314,
Does Anna know that the book is here?,Does Anna think that the book is here?,Is the book here?,late,15,mem_6,mem_K,1,1,1,no,X-B-O,X-B-X,X-X-X,M,stimuli/blue-M.png,mB-R,m0,stimuli/m0_w0_X-B-O.png,stimuli/mW-R_w0_X-B-O.png,stimuli/mB-R_w0_X-B-O.png,stimuli/mB-R_w0_X-B-X.png,stimuli/mB-R_w0_X-X-X.png,stimuli/mW-L_w0_X-X-X.png,stimuli/m0_wW-R_X-X-X.png,stimuli/m0_none_X-X-X.png,stimuli/m0_none_X-X-X.png,stimuli/m0_wW-L_X-X-X.png,0,25,25,14,,,,,,,,,268.2583891475806,274.9308064142242,275.6696891615866,275.6696891615866,275.6696891615866,276.5575343371602,276.5575343371602,left,0.5366567445453256,269.32024405372795,S5,T-M,2023-01-27_13h10.10.050,knowing_that_K_ONLY,2022.2.5,59.73844635793314,
Does Anna know that the book is here?,Does Anna think that the book is here?,Is the book here?,early,20,no_2,no_K,0,0,0,no,X-O-X,O-O-X,X-O-X,L,stimuli/blue-L.png,mB-L,m0,stimuli/m0_w0_X-O-X.png,stimuli/m0_wW-R_X-O-X.png,stimuli/m0_none_X-O-X.png,stimuli/mW-R_none_X-O-X.png,stimuli/mB-L_none_X-O-X.png,stimuli/mB-L_none_O-O-X.png,stimuli/mB-L_none_X-O-X.png,stimuli/mW-L_none_X-O-X.png,stimuli/m0_none_X-O-X.png,stimuli/m0_wW-L_X-O-X.png,0,26,26,19,,,,,,,,,277.12485668144654,283.7978257285431,284.53639088128693,284.53639088128693,284.53639088128693,285.4251256423304,285.4251256423304,right,0.43714924063533545,278.18335021822713,S5,T-M,2023-01-27_13h10.10.050,knowing_that_K_ONLY,2022.2.5,59.73844635793314,
Does Anna know that the book is here?,Does Anna think that the book is here?,Is the book here?,early,7,per_7,per_K,1,1,1,switch,B-X-O,O-X-B,X-X-B,R,stimuli/blue-R.png,mB-R,m0,stimuli/m0_w0_B-X-O.png,stimuli/m0_wW-R_B-X-O.png,stimuli/m0_none_B-X-O.png,stimuli/mW-R_none_B-X-O.png,stimuli/mB-R_none_B-X-O.png,stimuli/mB-R_none_O-X-B.png,stimuli/mB-R_none_X-X-B.png,stimuli/mW-L_none_X-X-B.png,stimuli/m0_none_X-X-B.png,stimuli/m0_wW-L_X-X-B.png,0,27,27,6,,,,,,,,,285.8915494828252,292.56495514221024,293.3015005219495,293.3015005219495,293.3015005219495,294.19164328544866,294.19164328544866,left,0.4784637998091057,286.94902639626525,S5,T-M,2023-01-27_13h10.10.050,knowing_that_K_ONLY,2022.2.5,59.73844635793314,
Does Anna know that the book is here?,Does Anna think that the book is here?,Is the book here?,late,16,mem_7,mem_K,1,1,1,switch,B-X-O,O-X-B,O-X-X,R,stimuli/blue-R.png,mB-M,m0,stimuli/m0_w0_B-X-O.png,stimuli/mW-R_w0_B-X-O.png,stimuli/mB-M_w0_B-X-O.png,stimuli/mB-M_w0_O-X-B.png,stimuli/mB-M_w0_O-X-X.png,stimuli/mW-L_w0_O-X-X.png,stimuli/m0_wW-R_O-X-X.png,stimuli/m0_none_O-X-X.png,stimuli/m0_none_O-X-X.png,stimuli/m0_wW-L_O-X-X.png,1,0,28,15,,,,,,,,,294.6917517167749,301.3614588432247,302.0744329333538,302.0744329333538,302.0744329333538,302.9914339297684,302.9914339297684,left,0.2875817788299173,295.7449994899798,S5,T-M,2023-01-27_13h10.10.050,knowing_that_K_ONLY,2022.2.5,59.73844635793314,
Does Anna know that the book is here?,Does Anna think that the book is here?,Is the book here?,early,9,per_9,per_K,1,1,1,switch,X-O-B,X-B-O,X-B-X,M,stimuli/blue-M.png,mB-R,m0,stimuli/m0_w0_X-O-B.png,stimuli/m0_wW-R_X-O-B.png,stimuli/m0_none_X-O-B.png,stimuli/mW-R_none_X-O-B.png,stimuli/mB-R_none_X-O-B.png,stimuli/mB-R_none_X-B-O.png,stimuli/mB-R_none_X-B-X.png,stimuli/mW-L_none_X-B-X.png,stimuli/m0_none_X-B-X.png,stimuli/m0_wW-L_X-B-X.png,1,1,29,8,,,,,,,,,303.3081898970995,309.97993796959054,310.7193853294011,310.7193853294011,310.7193853294011,311.60845308355056,311.60845308355056,left,0.26197531761135906,304.3628036476439,S5,T-M,2023-01-27_13h10.10.050,knowing_that_K_ONLY,2022.2.5,59.73844635793314,
Does Anna know that the book is here?,Does Anna think that the book is here?,Is the book here?,early,21,no_3,no_K,0,0,0,no,X-X-O,X-O-O,X-X-O,M,stimuli/blue-M.png,mB-M,m0,stimuli/m0_w0_X-X-O.png,stimuli/m0_wW-R_X-X-O.png,stimuli/m0_none_X-X-O.png,stimuli/mW-R_none_X-X-O.png,stimuli/mB-M_none_X-X-O.png,stimuli/mB-M_none_X-O-O.png,stimuli/mB-M_none_X-X-O.png,stimuli/mW-L_none_X-X-O.png,stimuli/m0_none_X-X-O.png,stimuli/m0_wW-L_X-X-O.png,1,2,30,20,,,,,,,,,311.89161139773205,318.5656958753243,319.29996355681214,319.29996355681214,319.29996355681214,320.1917947042966,320.1917947042966,right,0.2958501443499699,312.95270728494506,S5,T-M,2023-01-27_13h10.10.050,knowing_that_K_ONLY,2022.2.5,59.73844635793314,
Does Anna know that the book is here?,Does Anna think that the book is here?,Is the book here?,early,1,per_1,per_K,1,1,1,no,B-X-X,B-O-X,B-X-X,L,stimuli/blue-L.png,mB-M,m0,stimuli/m0_w0_B-X-X.png,stimuli/m0_wW-R_B-X-X.png,stimuli/m0_none_B-X-X.png,stimuli/mW-R_none_B-X-X.png,stimuli/mB-M_none_B-X-X.png,stimuli/mB-M_none_B-O-X.png,stimuli/mB-M_none_B-X-X.png,stimuli/mW-L_none_B-X-X.png,stimuli/m0_none_B-X-X.png,stimuli/m0_wW-L_B-X-X.png,1,3,31,0,,,,,,,,,320.5082555334084,327.1807116171112,327.9206109876977,327.9206109876977,327.9206109876977,328.8084144589957,328.8084144589957,left,0.3189004505984485,321.5698528350331,S5,T-M,2023-01-27_13h10.10.050,knowing_that_K_ONLY,2022.2.5,59.73844635793314,
Does Anna know that the book is here?,Does Anna think that the book is here?,Is the book here?,late,10,mem_1,mem_K,1,1,1,no,O-X-B,X-X-B,X-X-X,R,stimuli/blue-R.png,mB-M,m0,stimuli/m0_w0_O-X-B.png,stimuli/mW-R_w0_O-X-B.png,stimuli/mB-M_w0_O-X-B.png,stimuli/mB-M_w0_X-X-B.png,stimuli/mB-M_w0_X-X-X.png,stimuli/mW-L_w0_X-X-X.png,stimuli/m0_wW-R_X-X-X.png,stimuli/m0_none_X-X-X.png,stimuli/m0_none_X-X-X.png,stimuli/m0_wW-L_X-X-X.png,1,4,32,9,,,,,,,,,329.15851817443036,335.82813900499605,336.57007162238006,336.57007162238006,336.57007162238006,337.45819461299106,337.45819461299106,left,0.32528762985020876,330.2108600011561,S5,T-M,2023-01-27_13h10.10.050,knowing_that_K_ONLY,2022.2.5,59.73844635793314,
Does Anna know that the book is here?,Does Anna think that the book is here?,Is the book here?,early,26,no_8,no_K,0,0,0,hide,X-B-O,O-B-O,X-O-X,R,stimuli/blue-R.png,mB-L,m0,stimuli/m0_w0_X-B-O.png,stimuli/m0_wW-R_X-B-O.png,stimuli/m0_none_X-B-O.png,stimuli/mW-R_none_X-B-O.png,stimuli/mB-L_none_X-B-O.png,stimuli/mB-L_none_O-B-O.png,stimuli/mB-L_none_X-O-X.png,stimuli/mW-L_none_X-O-X.png,stimuli/m0_none_X-O-X.png,stimuli/m0_wW-L_X-O-X.png,1,5,33,25,,,,,,,,,337.8081818771316,344.4803129878128,345.21807581337634,345.21807581337634,345.21807581337634,346.1083196296822,346.1083196296822,right,0.45885057223495096,338.85789023549296,S5,T-M,2023-01-27_13h10.10.050,knowing_that_K_ONLY,2022.2.5,59.73844635793314,
Does Anna know that the book is here?,Does Anna think that the book is here?,Is the book here?,late,18,mem_9,mem_K,1,1,1,switch,X-O-B,X-B-O,X-X-O,M,stimuli/blue-M.png,mB-L,m0,stimuli/m0_w0_X-O-B.png,stimuli/mW-R_w0_X-O-B.png,stimuli/mB-L_w0_X-O-B.png,stimuli/mB-L_w0_X-B-O.png,stimuli/mB-L_w0_X-X-O.png,stimuli/mW-L_w0_X-X-O.png,stimuli/m0_wW-R_X-X-O.png,stimuli/m0_none_X-X-O.png,stimuli/m0_none_X-X-O.png,stimuli/m0_wW-L_X-X-O.png,1,6,34,17,,,,,,,,,346.5916378960246,353.26674797944725,354.0014513108181,354.0014513108181,354.0014513108181,354.89175736287143,354.89175736287143,right,0.33170817245263606,347.6492729651509,S5,T-M,2023-01-27_13h10.10.050,knowing_that_K_ONLY,2022.2.5,59.73844635793314,
Does Anna know that the book is here?,Does Anna think that the book is here?,Is the book here?,early,20,no_2,no_K,0,0,0,no,X-O-X,O-O-X,X-O-X,L,stimuli/blue-L.png,mB-L,m0,stimuli/m0_w0_X-O-X.png,stimuli/m0_wW-R_X-O-X.png,stimuli/m0_none_X-O-X.png,stimuli/mW-R_none_X-O-X.png,stimuli/mB-L_none_X-O-X.png,stimuli/mB-L_none_O-O-X.png,stimuli/mB-L_none_X-O-X.png,stimuli/mW-L_none_X-O-X.png,stimuli/m0_none_X-O-X.png,stimuli/m0_wW-L_X-O-X.png,1,7,35,19,,,,,,,,,355.24165833112784,361.9128032947192,362.65061135345604,362.65061135345604,362.65061135345604,363.5420126254903,363.5420126254903,right,0.6487775640562177,356.3034253374208,S5,T-M,2023-01-27_13h10.10.050,knowing_that_K_ONLY,2022.2.5,59.73844635793314,
Does Anna know that the book is here?,Does Anna think that the book is here?,Is the book here?,early,2,per_2,per_K,1,1,1,no,X-X-B,O-X-B,X-X-B,R,stimuli/blue-R.png,mB-L,m0,stimuli/m0_w0_X-X-B.png,stimuli/m0_wW-R_X-X-B.png,stimuli/m0_none_X-X-B.png,stimuli/mW-R_none_X-X-B.png,stimuli/mB-L_none_X-X-B.png,stimuli/mB-L_none_O-X-B.png,stimuli/mB-L_none_X-X-B.png,stimuli/mW-L_none_X-X-B.png,stimuli/m0_none_X-X-B.png,stimuli/m0_wW-L_X-X-B.png,1,8,36,1,,,,,,,,,364.2083250192227,370.8781800357392,371.61939245124813,371.61939245124813,371.61939245124813,372.50835466140416,372.50835466140416,left,0.274281945778057,365.269737859373,S5,T-M,2023-01-27_13h10.10.050,knowing_that_K_ONLY,2022.2.5,59.73844635793314,
Does Anna know that the book is here?,Does Anna think that the book is here?,Is the book here?,early,23,no_5,no_K,0,0,0,no,X-O-X,X-O-O,X-O-X,R,stimuli/blue-R.png,mB-R,m0,stimuli/m0_w0_X-O-X.png,stimuli/m0_wW-R_X-O-X.png,stimuli/m0_none_X-O-X.png,stimuli/mW-R_none_X-O-X.png,stimuli/mB-R_none_X-O-X.png,stimuli/mB-R_none_X-O-O.png,stimuli/mB-R_none_X-O-X.png,stimuli/mW-L_none_X-O-X.png,stimuli/m0_none_X-O-X.png,stimuli/m0_wW-L_X-O-X.png,1,9,37,22,,,,,,,,,372.8085796722444,379.48143194720615,380.1917055211961,380.1917055211961,380.1917055211961,381.10837673256174,381.10837673256174,right,0.34657288051676005,373.8600264597917,S5,T-M,2023-01-27_13h10.10.050,knowing_that_K_ONLY,2022.2.5,59.73844635793314,
Does Anna know that the book is here?,Does Anna think that the book is here?,Is the book here?,late,15,mem_6,mem_K,1,1,1,no,X-B-O,X-B-X,X-X-X,M,stimuli/blue-M.png,mB-R,m0,stimuli/m0_w0_X-B-O.png,stimuli/mW-R_w0_X-B-O.png,stimuli/mB-R_w0_X-B-O.png,stimuli/mB-R_w0_X-B-X.png,stimuli/mB-R_w0_X-X-X.png,stimuli/mW-L_w0_X-X-X.png,stimuli/m0_wW-R_X-X-X.png,stimuli/m0_none_X-X-X.png,stimuli/m0_none_X-X-X.png,stimuli/m0_wW-L_X-X-X.png,1,10,38,14,,,,,,,,,381.4747509128647,388.14490652130917,388.8869722717209,388.8869722717209,388.8869722717209,389.7752258289838,389.7752258289838,right,0.5606239046901464,382.52675397205167,S5,T-M,2023-01-27_13h10.10.050,knowing_that_K_ONLY,2022.2.5,59.73844635793314,
Does Anna know that the book is here?,Does Anna think that the book is here?,Is the book here?,early,8,per_8,per_K,1,1,1,switch,O-X-B,B-X-O,B-X-X,L,stimuli/blue-L.png,mB-L,m0,stimuli/m0_w0_O-X-B.png,stimuli/m0_wW-R_O-X-B.png,stimuli/m0_none_O-X-B.png,stimuli/mW-R_none_O-X-B.png,stimuli/mB-L_none_O-X-B.png,stimuli/mB-L_none_B-X-O.png,stimuli/mB-L_none_B-X-X.png,stimuli/mW-L_none_B-X-X.png,stimuli/m0_none_B-X-X.png,stimuli/m0_wW-L_B-X-X.png,1,11,39,7,,,,,,,,,390.3583730433602,397.03086730255745,397.77147083485033,397.77147083485033,397.77147083485033,398.6584970015101,398.6584970015101,left,0.2917817260604352,391.41407591861207,S5,T-M,2023-01-27_13h10.10.050,knowing_that_K_ONLY,2022.2.5,59.73844635793314,
Does Anna know that the book is here?,Does Anna think that the book is here?,Is the book here?,early,3,per_3,per_K,1,1,1,no,O-B-X,O-B-O,O-B-X,M,stimuli/blue-M.png,mB-R,m0,stimuli/m0_w0_O-B-X.png,stimuli/m0_wW-R_O-B-X.png,stimuli/m0_none_O-B-X.png,stimuli/mW-R_none_O-B-X.png,stimuli/mB-R_none_O-B-X.png,stimuli/mB-R_none_O-B-O.png,stimuli/mB-R_none_O-B-X.png,stimuli/mW-L_none_O-B-X.png,stimuli/m0_none_O-B-X.png,stimuli/m0_wW-L_O-B-X.png,1,12,40,2,,,,,,,,,398.975141650415,405.6483477705624,406.38580839999486,406.38580839999486,406.38580839999486,407.27522614982445,407.27522614982445,left,0.5234213928924873,400.0367585209897,S5,T-M,2023-01-27_13h10.10.050,knowing_that_K_ONLY,2022.2.5,59.73844635793314,
Does Anna know that the book is here?,Does Anna think that the book is here?,Is the book here?,early,22,no_4,no_K,0,0,0,no,O-X-X,O-O-X,O-X-X,M,stimuli/blue-M.png,mB-M,m0,stimuli/m0_w0_O-X-X.png,stimuli/m0_wW-R_O-X-X.png,stimuli/m0_none_O-X-X.png,stimuli/mW-R_none_O-X-X.png,stimuli/mB-M_none_O-X-X.png,stimuli/mB-M_none_O-O-X.png,stimuli/mB-M_none_O-X-X.png,stimuli/mW-L_none_O-X-X.png,stimuli/m0_none_O-X-X.png,stimuli/m0_wW-L_O-X-X.png,1,13,41,21,,,,,,,,,407.8250637915917,414.4969331274042,415.2356291676406,415.2356291676406,415.2356291676406,416.12523683253676,416.12523683253676,right,0.5211937399581075,408.8856463946868,S5,T-M,2023-01-27_13h10.10.050,knowing_that_K_ONLY,2022.2.5,59.73844635793314,
Does Anna know that the book is here?,Does Anna think that the book is here?,Is the book here?,early,27,no_9,no_K,0,0,0,hide,X-X-B,O-O-B,X-X-O,L,stimuli/blue-L.png,mB-M,m0,stimuli/m0_w0_X-X-B.png,stimuli/m0_wW-R_X-X-B.png,stimuli/m0_none_X-X-B.png,stimuli/mW-R_none_X-X-B.png,stimuli/mB-M_none_X-X-B.png,stimuli/mB-M_none_O-O-B.png,stimuli/mB-M_none_X-X-O.png,stimuli/mW-L_none_X-X-O.png,stimuli/m0_none_X-X-O.png,stimuli/m0_wW-L_X-X-O.png,1,14,42,26,,,,,,,,,416.6747924888041,423.3485673919786,424.08663048874587,424.08663048874587,424.08663048874587,424.9752885779599,424.9752885779599,right,0.5676488393219188,417.72639614879154,S5,T-M,2023-01-27_13h10.10.050,knowing_that_K_ONLY,2022.2.5,59.73844635793314,
Does Anna know that the book is here?,Does Anna think that the book is here?,Is the book here?,early,19,no_1,no_K,0,0,0,no,X-X-X,O-X-X,X-X-X,L,stimuli/blue-L.png,mB-L,m0,stimuli/m0_w0_X-X-X.png,stimuli/m0_wW-R_X-X-X.png,stimuli/m0_none_X-X-X.png,stimuli/mW-R_none_X-X-X.png,stimuli/mB-L_none_X-X-X.png,stimuli/mB-L_none_O-X-X.png,stimuli/mB-L_none_X-X-X.png,stimuli/mW-L_none_X-X-X.png,stimuli/m0_none_X-X-X.png,stimuli/m0_wW-L_X-X-X.png,1,15,43,18,,,,,,,,,425.5750803129049,432.24625414877664,432.98608165967744,432.98608165967744,432.98608165967744,433.87501884717494,433.87501884717494,right,0.5243594197090715,426.62865883356426,S5,T-M,2023-01-27_13h10.10.050,knowing_that_K_ONLY,2022.2.5,59.73844635793314,
Does Anna know that the book is here?,Does Anna think that the book is here?,Is the book here?,early,7,per_7,per_K,1,1,1,switch,B-X-O,O-X-B,X-X-B,R,stimuli/blue-R.png,mB-R,m0,stimuli/m0_w0_B-X-O.png,stimuli/m0_wW-R_B-X-O.png,stimuli/m0_none_B-X-O.png,stimuli/mW-R_none_B-X-O.png,stimuli/mB-R_none_B-X-O.png,stimuli/mB-R_none_O-X-B.png,stimuli/mB-R_none_X-X-B.png,stimuli/mW-L_none_X-X-B.png,stimuli/m0_none_X-X-B.png,stimuli/m0_wW-L_X-X-B.png,1,16,44,6,,,,,,,,,434.42517889558803,441.09558055957314,441.83843676757533,441.83843676757533,441.83843676757533,442.72528071829583,442.72528071829583,left,0.28161549265496433,435.4810421720613,S5,T-M,2023-01-27_13h10.10.050,knowing_that_K_ONLY,2022.2.5,59.73844635793314,
Does Anna know that the book is here?,Does Anna think that the book is here?,Is the book here?,early,28,no_10,no_K,0,0,0,hide,O-B-O,O-B-O,X-O-X,L,stimuli/blue-L.png,mB-M,m0,stimuli/m0_w0_O-B-O.png,stimuli/m0_wW-R_O-B-O.png,stimuli/m0_none_O-B-O.png,stimuli/mW-R_none_O-B-O.png,stimuli/mB-M_none_O-B-O.png,stimuli/mB-M_none_O-B-O.png,stimuli/mB-M_none_X-O-X.png,stimuli/mW-L_none_X-O-X.png,stimuli/m0_none_X-O-X.png,stimuli/m0_wW-L_X-O-X.png,1,17,45,27,,,,,,,,,443.0251130668912,449.6977770306403,450.43623311049305,450.43623311049305,450.43623311049305,451.32504422264174,451.32504422264174,right,0.4099698845529929,444.0881642458262,S5,T-M,2023-01-27_13h10.10.050,knowing_that_K_ONLY,2022.2.5,59.73844635793314,
Does Anna know that the book is here?,Does Anna think that the book is here?,Is the book here?,early,24,no_6,no_K,0,0,0,no,X-X-X,X-X-O,X-X-X,R,stimuli/blue-R.png,mB-R,m0,stimuli/m0_w0_X-X-X.png,stimuli/m0_wW-R_X-X-X.png,stimuli/m0_none_X-X-X.png,stimuli/mW-R_none_X-X-X.png,stimuli/mB-R_none_X-X-X.png,stimuli/mB-R_none_X-X-O.png,stimuli/mB-R_none_X-X-X.png,stimuli/mW-L_none_X-X-X.png,stimuli/m0_none_X-X-X.png,stimuli/m0_wW-L_X-X-X.png,1,18,46,23,,,,,,,,,451.75838722276967,458.42880877666175,459.1730883856071,459.1730883856071,459.1730883856071,460.05841237376444,460.05841237376444,right,0.5880441836779937,452.8209562355187,S5,T-M,2023-01-27_13h10.10.050,knowing_that_K_ONLY,2022.2.5,59.73844635793314,
Does Anna know that the book is here?,Does Anna think that the book is here?,Is the book here?,late,4,per_4,per_K,1,1,1,no,O-X-B,O-O-B,O-X-B,R,stimuli/blue-R.png,mB-M,m0,stimuli/m0_w0_O-X-B.png,stimuli/mW-R_w0_O-X-B.png,stimuli/mB-M_w0_O-X-B.png,stimuli/mB-M_w0_O-O-B.png,stimuli/mB-M_w0_O-X-B.png,stimuli/mW-L_w0_O-X-B.png,stimuli/m0_wW-R_O-X-B.png,stimuli/m0_none_O-X-B.png,stimuli/m0_none_O-X-B.png,stimuli/m0_wW-L_O-X-B.png,1,19,47,3,,,,,,,,,460.6750443188939,467.34968506812584,468.08726439462043,468.08726439462043,468.08726439462043,468.975196507643,468.975196507643,left,0.2873447056626901,461.7244546517031,S5,T-M,2023-01-27_13h10.10.050,knowing_that_K_ONLY,2022.2.5,59.73844635793314,
Does Anna know that the book is here?,Does Anna think that the book is here?,Is the book here?,late,5,per_5,per_K,1,1,1,no,X-B-O,O-B-O,X-B-O,M,stimuli/blue-M.png,mB-L,m0,stimuli/m0_w0_X-B-O.png,stimuli/mW-R_w0_X-B-O.png,stimuli/mB-L_w0_X-B-O.png,stimuli/mB-L_w0_O-B-O.png,stimuli/mB-L_w0_X-B-O.png,stimuli/mW-L_w0_X-B-O.png,stimuli/m0_wW-R_X-B-O.png,stimuli/m0_none_X-B-O.png,stimuli/m0_none_X-B-O.png,stimuli/m0_wW-L_X-B-O.png,1,20,48,4,,,,,,,,,469.31612334470265,475.99706561886705,476.73813976859674,476.73813976859674,476.73813976859674,477.6252185467165,477.6252185467165,left,0.5982851641019806,470.37639893975575,S5,T-M,2023-01-27_13h10.10.050,knowing_that_K_ONLY,2022.2.5,59.73844635793314,
Does Anna know that the book is here?,Does Anna think that the book is here?,Is the book here?,late,14,mem_5,mem_K,1,1,1,no,O-B-X,O-B-X,O-X-X,M,stimuli/blue-M.png,mB-L,m0,stimuli/m0_w0_O-B-X.png,stimuli/mW-R_w0_O-B-X.png,stimuli/mB-L_w0_O-B-X.png,stimuli/mB-L_w0_O-B-X.png,stimuli/mB-L_w0_O-X-X.png,stimuli/mW-L_w0_O-X-X.png,stimuli/m0_wW-R_O-X-X.png,stimuli/m0_none_O-X-X.png,stimuli/m0_none_O-X-X.png,stimuli/m0_wW-L_O-X-X.png,1,21,49,13,,,,,,,,,478.241868135985,484.9143659240799,485.6524129806785,485.6524129806785,485.6524129806785,486.5420793524245,486.5420793524245,right,0.5767256272956729,479.2971048851032,S5,T-M,2023-01-27_13h10.10.050,knowing_that_K_ONLY,2022.2.5,59.73844635793314,
Does Anna know that the book is here?,Does Anna think that the book is here?,Is the book here?,early,25,no_7,no_K,0,0,0,hide,B-X-X,B-O-O,O-X-X,M,stimuli/blue-M.png,mB-L,m0,stimuli/m0_w0_B-X-X.png,stimuli/m0_wW-R_B-X-X.png,stimuli/m0_none_B-X-X.png,stimuli/mW-R_none_B-X-X.png,stimuli/mB-L_none_B-X-X.png,stimuli/mB-L_none_B-O-O.png,stimuli/mB-L_none_O-X-X.png,stimuli/mW-L_none_O-X-X.png,stimuli/m0_none_O-X-X.png,stimuli/m0_wW-L_O-X-X.png,1,22,50,24,,,,,,,,,487.1419962004293,493.81493092153687,494.55127034615725,494.55127034615725,494.55127034615725,495.4420675468864,495.4420675468864,right,0.493622042122297,488.2020748227369,S5,T-M,2023-01-27_13h10.10.050,knowing_that_K_ONLY,2022.2.5,59.73844635793314,
Does Anna know that the book is here?,Does Anna think that the book is here?,Is the book here?,late,11,mem_2,mem_K,1,1,1,no,O-B-O,O-B-X,O-X-X,M,stimuli/blue-M.png,mB-L,m0,stimuli/m0_w0_O-B-O.png,stimuli/mW-R_w0_O-B-O.png,stimuli/mB-L_w0_O-B-O.png,stimuli/mB-L_w0_O-B-X.png,stimuli/mB-L_w0_O-X-X.png,stimuli/mW-L_w0_O-X-X.png,stimuli/m0_wW-R_O-X-X.png,stimuli/m0_none_O-X-X.png,stimuli/m0_none_O-X-X.png,stimuli/m0_wW-L_O-X-X.png,1,23,51,10,,,,,,,,,495.95854845817667,502.62948201294057,503.36702316382434,503.36702316382434,503.36702316382434,504.2585720050847,504.2585720050847,right,0.6455923152389005,497.02019933389965,S5,T-M,2023-01-27_13h10.10.050,knowing_that_K_ONLY,2022.2.5,59.73844635793314,
Does Anna know that the book is here?,Does Anna think that the book is here?,Is the book here?,late,6,per_6,per_K,1,1,1,no,X-B-X,O-B-X,X-B-X,M,stimuli/blue-M.png,mB-L,m0,stimuli/m0_w0_X-B-X.png,stimuli/mW-R_w0_X-B-X.png,stimuli/mB-L_w0_X-B-X.png,stimuli/mB-L_w0_O-B-X.png,stimuli/mB-L_w0_X-B-X.png,stimuli/mW-L_w0_X-B-X.png,stimuli/m0_wW-R_X-B-X.png,stimuli/m0_none_X-B-X.png,stimuli/m0_none_X-B-X.png,stimuli/m0_wW-L_X-B-X.png,1,24,52,5,,,,,,,,,504.92520552221686,511.59722820157185,512.3372379284119,512.3372379284119,512.3372379284119,513.2251764574321,513.2251764574321,left,0.3737673143623397,505.9790573666105,S5,T-M,2023-01-27_13h10.10.050,knowing_that_K_ONLY,2022.2.5,59.73844635793314,
Does Anna know that the book is here?,Does Anna think that the book is here?,Is the book here?,late,17,mem_8,mem_K,1,1,1,switch,O-X-B,B-X-O,X-X-O,L,stimuli/blue-L.png,mB-M,m0,stimuli/m0_w0_O-X-B.png,stimuli/mW-R_w0_O-X-B.png,stimuli/mB-M_w0_O-X-B.png,stimuli/mB-M_w0_B-X-O.png,stimuli/mB-M_w0_X-X-O.png,stimuli/mW-L_w0_X-X-O.png,stimuli/m0_wW-R_X-X-O.png,stimuli/m0_none_X-X-O.png,stimuli/m0_none_X-X-O.png,stimuli/m0_wW-L_X-X-O.png,1,25,53,16,,,,,,,,,513.6251531030284,520.2998002683744,521.0389435073594,521.0389435073594,521.0389435073594,521.9254063445842,521.9254063445842,left,0.40197484276723117,514.6793318452546,S5,T-M,2023-01-27_13h10.10.050,knowing_that_K_ONLY,2022.2.5,59.73844635793314,
Does Anna know that the book is here?,Does Anna think that the book is here?,Is the book here?,late,12,mem_3,mem_K,1,1,1,no,X-O-B,X-O-B,X-O-X,R,stimuli/blue-R.png,mB-M,m0,stimuli/m0_w0_X-O-B.png,stimuli/mW-R_w0_X-O-B.png,stimuli/mB-M_w0_X-O-B.png,stimuli/mB-M_w0_X-O-B.png,stimuli/mB-M_w0_X-O-X.png,stimuli/mW-L_w0_X-O-X.png,stimuli/m0_wW-R_X-O-X.png,stimuli/m0_none_X-O-X.png,stimuli/m0_none_X-O-X.png,stimuli/m0_wW-L_X-O-X.png,1,26,54,11,,,,,,,,,522.3582812937675,529.0296626889613,529.7686801733216,529.7686801733216,529.7686801733216,530.6586407209979,530.6586407209979,left,0.7165089317131788,523.41119318665,S5,T-M,2023-01-27_13h10.10.050,knowing_that_K_ONLY,2022.2.5,59.73844635793314,
Does Anna know that the book is here?,Does Anna think that the book is here?,Is the book here?,late,13,mem_4,mem_K,1,1,1,no,B-X-O,B-X-O,X-X-O,L,stimuli/blue-L.png,mB-M,m0,stimuli/m0_w0_B-X-O.png,stimuli/mW-R_w0_B-X-O.png,stimuli/mB-M_w0_B-X-O.png,stimuli/mB-M_w0_B-X-O.png,stimuli/mB-M_w0_X-X-O.png,stimuli/mW-L_w0_X-X-O.png,stimuli/m0_wW-R_X-X-O.png,stimuli/m0_none_X-X-O.png,stimuli/m0_none_X-X-O.png,stimuli/m0_wW-L_X-X-O.png,1,27,55,12,,,,,,,,,531.3919190473389,538.0619264451088,538.8002564496128,538.8002564496128,538.8002564496128,539.6921235269401,539.6921235269401,left,0.5387159764068201,532.4552919912385,S5,T-M,2023-01-27_13h10.10.050,knowing_that_K_ONLY,2022.2.5,59.73844635793314,
Does Anna know that the book is here?,Does Anna think that the book is here?,Is the book here?,late,15,mem_6,mem_K,1,1,1,no,X-B-O,X-B-X,X-X-X,M,stimuli/blue-M.png,mB-R,m0,stimuli/m0_w0_X-B-O.png,stimuli/mW-R_w0_X-B-O.png,stimuli/mB-R_w0_X-B-O.png,stimuli/mB-R_w0_X-B-X.png,stimuli/mB-R_w0_X-X-X.png,stimuli/mW-L_w0_X-X-X.png,stimuli/m0_wW-R_X-X-X.png,stimuli/m0_none_X-X-X.png,stimuli/m0_none_X-X-X.png,stimuli/m0_wW-L_X-X-X.png,2,0,56,14,,,,,,,,,540.2580843851902,546.9149225165602,547.6709274594905,547.6709274594905,547.6709274594905,548.5420864101034,548.5420864101034,left,0.5204873326001689,541.3202450161334,S5,T-M,2023-01-27_13h10.10.050,knowing_that_K_ONLY,2022.2.5,59.73844635793314,
Does Anna know that the book is here?,Does Anna think that the book is here?,Is the book here?,early,25,no_7,no_K,0,0,0,hide,B-X-X,B-O-O,O-X-X,M,stimuli/blue-M.png,mB-L,m0,stimuli/m0_w0_B-X-X.png,stimuli/m0_wW-R_B-X-X.png,stimuli/m0_none_B-X-X.png,stimuli/mW-R_none_B-X-X.png,stimuli/mB-L_none_B-X-X.png,stimuli/mB-L_none_B-O-O.png,stimuli/mB-L_none_O-X-X.png,stimuli/mW-L_none_O-X-X.png,stimuli/m0_none_O-X-X.png,stimuli/m0_wW-L_O-X-X.png,2,1,57,24,,,,,,,,,549.0919779466931,555.7665391369956,556.5003637900809,556.5003637900809,556.5003637900809,557.3921577244764,557.3921577244764,right,0.3910303423181176,550.1470052117947,S5,T-M,2023-01-27_13h10.10.050,knowing_that_K_ONLY,2022.2.5,59.73844635793314,
Does Anna know that the book is here?,Does Anna think that the book is here?,Is the book here?,early,26,no_8,no_K,0,0,0,hide,X-B-O,O-B-O,X-O-X,R,stimuli/blue-R.png,mB-L,m0,stimuli/m0_w0_X-B-O.png,stimuli/m0_wW-R_X-B-O.png,stimuli/m0_none_X-B-O.png,stimuli/mW-R_none_X-B-O.png,stimuli/mB-L_none_X-B-O.png,stimuli/mB-L_none_O-B-O.png,stimuli/mB-L_none_X-O-X.png,stimuli/mW-L_none_X-O-X.png,stimuli/m0_none_X-O-X.png,stimuli/m0_wW-L_X-O-X.png,2,2,58,25,,,,,,,,,557.8086884242948,564.4819696123013,565.2171166136395,565.2171166136395,565.2171166136395,566.1086664173054,566.1086664173054,right,0.6106405543396249,558.8623551656492,S5,T-M,2023-01-27_13h10.10.050,knowing_that_K_ONLY,2022.2.5,59.73844635793314,
Does Anna know that the book is here?,Does Anna think that the book is here?,Is the book here?,early,27,no_9,no_K,0,0,0,hide,X-X-B,O-O-B,X-X-O,L,stimuli/blue-L.png,mB-M,m0,stimuli/m0_w0_X-X-B.png,stimuli/m0_wW-R_X-X-B.png,stimuli/m0_none_X-X-B.png,stimuli/mW-R_none_X-X-B.png,stimuli/mB-M_none_X-X-B.png,stimuli/mB-M_none_O-O-B.png,stimuli/mB-M_none_X-X-O.png,stimuli/mW-L_none_X-X-O.png,stimuli/m0_none_X-X-O.png,stimuli/m0_wW-L_X-X-O.png,2,3,59,26,,,,,,,,,566.7419839457143,573.4130336310482,574.1522801684914,574.1522801684914,574.1522801684914,575.0420232119504,575.0420232119504,right,0.6064768577925861,567.7934624927584,S5,T-M,2023-01-27_13h10.10.050,knowing_that_K_ONLY,2022.2.5,59.73844635793314,
Does Anna know that the book is here?,Does Anna think that the book is here?,Is the book here?,early,2,per_2,per_K,1,1,1,no,X-X-B,O-X-B,X-X-B,R,stimuli/blue-R.png,mB-L,m0,stimuli/m0_w0_X-X-B.png,stimuli/m0_wW-R_X-X-B.png,stimuli/m0_none_X-X-B.png,stimuli/mW-R_none_X-X-B.png,stimuli/mB-L_none_X-X-B.png,stimuli/mB-L_none_O-X-B.png,stimuli/mB-L_none_X-X-B.png,stimuli/mW-L_none_X-X-B.png,stimuli/m0_none_X-X-B.png,stimuli/m0_wW-L_X-X-B.png,2,4,60,1,,,,,,,,,575.675498896162,582.3502095802687,583.0838208998321,583.0838208998321,583.0838208998321,583.9753354151035,583.9753354151035,left,0.4160468477057293,576.7102357193362,S5,T-M,2023-01-27_13h10.10.050,knowing_that_K_ONLY,2022.2.5,59.73844635793314,
Does Anna know that the book is here?,Does Anna think that the book is here?,Is the book here?,early,19,no_1,no_K,0,0,0,no,X-X-X,O-X-X,X-X-X,L,stimuli/blue-L.png,mB-L,m0,stimuli/m0_w0_X-X-X.png,stimuli/m0_wW-R_X-X-X.png,stimuli/m0_none_X-X-X.png,stimuli/mW-R_none_X-X-X.png,stimuli/mB-L_none_X-X-X.png,stimuli/mB-L_none_O-X-X.png,stimuli/mB-L_none_X-X-X.png,stimuli/mW-L_none_X-X-X.png,stimuli/m0_none_X-X-X.png,stimuli/m0_wW-L_X-X-X.png,2,5,61,18,,,,,,,,,584.408579287352,591.0807941275416,591.8157897100318,591.8157897100318,591.8157897100318,592.7087308344198,592.7087308344198,right,0.5622327295131981,585.4700325486483,S5,T-M,2023-01-27_13h10.10.050,knowing_that_K_ONLY,2022.2.5,59.73844635793314,
Does Anna know that the book is here?,Does Anna think that the book is here?,Is the book here?,early,28,no_10,no_K,0,0,0,hide,O-B-O,O-B-O,X-O-X,L,stimuli/blue-L.png,mB-M,m0,stimuli/m0_w0_O-B-O.png,stimuli/m0_wW-R_O-B-O.png,stimuli/m0_none_O-B-O.png,stimuli/mW-R_none_O-B-O.png,stimuli/mB-M_none_O-B-O.png,stimuli/mB-M_none_O-B-O.png,stimuli/mB-M_none_X-O-X.png,stimuli/mW-L_none_X-O-X.png,stimuli/m0_none_X-O-X.png,stimuli/m0_wW-L_X-O-X.png,2,6,62,27,,,,,,,,,593.2920708511956,599.9641663527582,600.6998814955587,600.6998814955587,600.6998814955587,601.5920786787756,601.5920786787756,right,0.3758724208455533,594.3474022370065,S5,T-M,2023-01-27_13h10.10.050,knowing_that_K_ONLY,2022.2.5,59.73844635793314,
Does Anna know that the book is here?,Does Anna think that the book is here?,Is the book here?,early,8,per_8,per_K,1,1,1,switch,O-X-B,B-X-O,B-X-X,L,stimuli/blue-L.png,mB-L,m0,stimuli/m0_w0_O-X-B.png,stimuli/m0_wW-R_O-X-B.png,stimuli/m0_none_O-X-B.png,stimuli/mW-R_none_O-X-B.png,stimuli/mB-L_none_O-X-B.png,stimuli/mB-L_none_B-X-O.png,stimuli/mB-L_none_B-X-X.png,stimuli/mW-L_none_B-X-X.png,stimuli/m0_none_B-X-X.png,stimuli/m0_wW-L_B-X-X.png,2,7,63,7,,,,,,,,,601.9918654091889,608.6632471251069,609.399132614024,609.399132614024,609.399132614024,610.2920798336854,610.2920798336854,left,0.35589219513349235,603.0433166879229,S5,T-M,2023-01-27_13h10.10.050,knowing_that_K_ONLY,2022.2.5,59.73844635793314,
Does Anna know that the book is here?,Does Anna think that the book is here?,Is the book here?,early,24,no_6,no_K,0,0,0,no,X-X-X,X-X-O,X-X-X,R,stimuli/blue-R.png,mB-R,m0,stimuli/m0_w0_X-X-X.png,stimuli/m0_wW-R_X-X-X.png,stimuli/m0_none_X-X-X.png,stimuli/mW-R_none_X-X-X.png,stimuli/mB-R_none_X-X-X.png,stimuli/mB-R_none_X-X-O.png,stimuli/mB-R_none_X-X-X.png,stimuli/mW-L_none_X-X-X.png,stimuli/m0_none_X-X-X.png,stimuli/m0_wW-L_X-X-X.png,2,8,64,23,,,,,,,,,610.675264389487,617.3488179388223,618.087053948082,618.087053948082,618.087053948082,618.9754130493384,618.9754130493384,right,0.9677210841327906,611.7303898200626,S5,T-M,2023-01-27_13h10.10.050,knowing_that_K_ONLY,2022.2.5,59.73844635793314,
Does Anna know that the book is here?,Does Anna think that the book is here?,Is the book here?,late,4,per_4,per_K,1,1,1,no,O-X-B,O-O-B,O-X-B,R,stimuli/blue-R.png,mB-M,m0,stimuli/m0_w0_O-X-B.png,stimuli/mW-R_w0_O-X-B.png,stimuli/mB-M_w0_O-X-B.png,stimuli/mB-M_w0_O-O-B.png,stimuli/mB-M_w0_O-X-B.png,stimuli/mW-L_w0_O-X-B.png,stimuli/m0_wW-R_O-X-B.png,stimuli/m0_none_O-X-B.png,stimuli/m0_none_O-X-B.png,stimuli/m0_wW-L_O-X-B.png,2,9,65,3,,,,,,,,,619.9754037461244,626.6238179227803,627.384696819121,627.384696819121,627.384696819121,628.2754378794925,628.2754378794925,left,0.2997453290736303,621.0212842881447,S5,T-M,2023-01-27_13h10.10.050,knowing_that_K_ONLY,2022.2.5,59.73844635793314,
Does Anna know that the book is here?,Does Anna think that the book is here?,Is the book here?,early,20,no_2,no_K,0,0,0,no,X-O-X,O-O-X,X-O-X,L,stimuli/blue-L.png,mB-L,m0,stimuli/m0_w0_X-O-X.png,stimuli/m0_wW-R_X-O-X.png,stimuli/m0_none_X-O-X.png,stimuli/mW-R_none_X-O-X.png,stimuli/mB-L_none_X-O-X.png,stimuli/mB-L_none_O-O-X.png,stimuli/mB-L_none_X-O-X.png,stimuli/mW-L_none_X-O-X.png,stimuli/m0_none_X-O-X.png,stimuli/m0_wW-L_X-O-X.png,2,10,66,19,,,,,,,,,628.5920947188279,635.2635097983293,636.0046070456738,636.0046070456738,636.0046070456738,636.8921769727021,636.8921769727021,right,0.38686857058200985,629.6538594794692,S5,T-M,2023-01-27_13h10.10.050,knowing_that_K_ONLY,2022.2.5,59.73844635793314,
Does Anna know that the book is here?,Does Anna think that the book is here?,Is the book here?,early,1,per_1,per_K,1,1,1,no,B-X-X,B-O-X,B-X-X,L,stimuli/blue-L.png,mB-M,m0,stimuli/m0_w0_B-X-X.png,stimuli/m0_wW-R_B-X-X.png,stimuli/m0_none_B-X-X.png,stimuli/mW-R_none_B-X-X.png,stimuli/mB-M_none_B-X-X.png,stimuli/mB-M_none_B-O-X.png,stimuli/mB-M_none_B-X-X.png,stimuli/mW-L_none_B-X-X.png,stimuli/m0_none_B-X-X.png,stimuli/m0_wW-L_B-X-X.png,2,11,67,0,,,,,,,,,637.3088087253273,643.9824681394966,644.7214243506314,644.7214243506314,644.7214243506314,645.6088175153127,645.6088175153127,left,0.5664506417233497,638.3618466935586,S5,T-M,2023-01-27_13h10.10.050,knowing_that_K_ONLY,2022.2.5,59.73844635793314,
Does Anna know that the book is here?,Does Anna think that the book is here?,Is the book here?,early,7,per_7,per_K,1,1,1,switch,B-X-O,O-X-B,X-X-B,R,stimuli/blue-R.png,mB-R,m0,stimuli/m0_w0_B-X-O.png,stimuli/m0_wW-R_B-X-O.png,stimuli/m0_none_B-X-O.png,stimuli/mW-R_none_B-X-O.png,stimuli/mB-R_none_B-X-O.png,stimuli/mB-R_none_O-X-B.png,stimuli/mB-R_none_X-X-B.png,stimuli/mW-L_none_X-X-B.png,stimuli/m0_none_X-X-B.png,stimuli/m0_wW-L_X-X-B.png,2,12,68,6,,,,,,,,,646.1921062036417,652.8648086637259,653.5989618187305,653.5989618187305,653.5989618187305,654.4921515651513,654.4921515651513,left,0.370671248761937,647.2462044244166,S5,T-M,2023-01-27_13h10.10.050,knowing_that_K_ONLY,2022.2.5,59.73844635793314,
Does Anna know that the book is here?,Does Anna think that the book is here?,Is the book here?,late,14,mem_5,mem_K,1,1,1,no,O-B-X,O-B-X,O-X-X,M,stimuli/blue-M.png,mB-L,m0,stimuli/m0_w0_O-B-X.png,stimuli/mW-R_w0_O-B-X.png,stimuli/mB-L_w0_O-B-X.png,stimuli/mB-L_w0_O-B-X.png,stimuli/mB-L_w0_O-X-X.png,stimuli/mW-L_w0_O-X-X.png,stimuli/m0_wW-R_O-X-X.png,stimuli/m0_none_O-X-X.png,stimuli/m0_none_O-X-X.png,stimuli/m0_wW-L_O-X-X.png,2,13,69,13,,,,,,,,,654.8921291730367,661.5660352844279,662.3036396334646,662.3036396334646,662.3036396334646,663.1921565695666,663.1921565695666,right,1.1187145134899765,655.9507901688339,S5,T-M,2023-01-27_13h10.10.050,knowing_that_K_ONLY,2022.2.5,59.73844635793314,
Does Anna know that the book is here?,Does Anna think that the book is here?,Is the book here?,late,5,per_5,per_K,1,1,1,no,X-B-O,O-B-O,X-B-O,M,stimuli/blue-M.png,mB-L,m0,stimuli/m0_w0_X-B-O.png,stimuli/mW-R_w0_X-B-O.png,stimuli/mB-L_w0_X-B-O.png,stimuli/mB-L_w0_O-B-O.png,stimuli/mB-L_w0_X-B-O.png,stimuli/mW-L_w0_X-B-O.png,stimuli/m0_wW-R_X-B-O.png,stimuli/m0_none_X-B-O.png,stimuli/m0_none_X-B-O.png,stimuli/m0_wW-L_X-B-O.png,2,14,70,4,,,,,,,,,664.3422395612579,671.015901541803,671.7550069261342,671.7550069261342,671.7550069261342,672.6423567824531,672.6423567824531,left,0.6768509969115257,665.4036463061348,S5,T-M,2023-01-27_13h10.10.050,knowing_that_K_ONLY,2022.2.5,59.73844635793314,
Does Anna know that the book is here?,Does Anna think that the book is here?,Is the book here?,early,3,per_3,per_K,1,1,1,no,O-B-X,O-B-O,O-B-X,M,stimuli/blue-M.png,mB-R,m0,stimuli/m0_w0_O-B-X.png,stimuli/m0_wW-R_O-B-X.png,stimuli/m0_none_O-B-X.png,stimuli/mW-R_none_O-B-X.png,stimuli/mB-R_none_O-B-X.png,stimuli/mB-R_none_O-B-O.png,stimuli/mB-R_none_O-B-X.png,stimuli/mW-L_none_O-B-X.png,stimuli/m0_none_O-B-X.png,stimuli/m0_wW-L_O-B-X.png,2,15,71,2,,,,,,,,,673.3415517605608,680.016719909152,680.7548234270653,680.7548234270653,680.7548234270653,681.6256368733011,681.6256368733011,left,0.3990051733562723,674.402675878373,S5,T-M,2023-01-27_13h10.10.050,knowing_that_K_ONLY,2022.2.5,59.73844635793314,
Does Anna know that the book is here?,Does Anna think that the book is here?,Is the book here?,late,18,mem_9,mem_K,1,1,1,switch,X-O-B,X-B-O,X-X-O,M,stimuli/blue-M.png,mB-L,m0,stimuli/m0_w0_X-O-B.png,stimuli/mW-R_w0_X-O-B.png,stimuli/mB-L_w0_X-O-B.png,stimuli/mB-L_w0_X-B-O.png,stimuli/mB-L_w0_X-X-O.png,stimuli/mW-L_w0_X-X-O.png,stimuli/m0_wW-R_X-X-O.png,stimuli/m0_none_X-X-O.png,stimuli/m0_none_X-X-O.png,stimuli/m0_wW-L_X-X-O.png,2,16,72,17,,,,,,,,,682.0421464001993,688.7150994071271,689.4520688878838,689.4520688878838,689.4520688878838,690.3423707694747,690.3423707694747,left,0.41836464614607394,683.0960081894882,S5,T-M,2023-01-27_13h10.10.050,knowing_that_K_ONLY,2022.2.5,59.73844635793314,
Does Anna know that the book is here?,Does Anna think that the book is here?,Is the book here?,early,23,no_5,no_K,0,0,0,no,X-O-X,X-O-O,X-O-X,R,stimuli/blue-R.png,mB-R,m0,stimuli/m0_w0_X-O-X.png,stimuli/m0_wW-R_X-O-X.png,stimuli/m0_none_X-O-X.png,stimuli/mW-R_none_X-O-X.png,stimuli/mB-R_none_X-O-X.png,stimuli/mB-R_none_X-O-O.png,stimuli/mB-R_none_X-O-X.png,stimuli/mW-L_none_X-O-X.png,stimuli/m0_none_X-O-X.png,stimuli/m0_wW-L_X-O-X.png,2,17,73,22,,,,,,,,,690.7924612679053,697.4629710424924,698.2007925747894,698.2007925747894,698.2007925747894,699.0922493457329,699.0922493457329,right,0.5870788886677474,691.8449173002737,S5,T-M,2023-01-27_13h10.10.050,knowing_that_K_ONLY,2022.2.5,59.73844635793314,
Does Anna know that the book is here?,Does Anna think that the book is here?,Is the book here?,late,13,mem_4,mem_K,1,1,1,no,B-X-O,B-X-O,X-X-O,L,stimuli/blue-L.png,mB-M,m0,stimuli/m0_w0_B-X-O.png,stimuli/mW-R_w0_B-X-O.png,stimuli/mB-M_w0_B-X-O.png,stimuli/mB-M_w0_B-X-O.png,stimuli/mB-M_w0_X-X-O.png,stimuli/mW-L_w0_X-X-O.png,stimuli/m0_wW-R_X-X-O.png,stimuli/m0_none_X-X-O.png,stimuli/m0_none_X-X-O.png,stimuli/m0_wW-L_X-X-O.png,2,18,74,12,,,,,,,,,699.7088790452108,706.3817961222958,707.1164288771106,707.1164288771106,707.1164288771106,708.008893609629,708.008893609629,left,0.38248095382004976,700.7679570843466,S5,T-M,2023-01-27_13h10.10.050,knowing_that_K_ONLY,2022.2.5,59.73844635793314,
Does Anna know that the book is here?,Does Anna think that the book is here?,Is the book here?,early,22,no_4,no_K,0,0,0,no,O-X-X,O-O-X,O-X-X,M,stimuli/blue-M.png,mB-M,m0,stimuli/m0_w0_O-X-X.png,stimuli/m0_wW-R_O-X-X.png,stimuli/m0_none_O-X-X.png,stimuli/mW-R_none_O-X-X.png,stimuli/mB-M_none_O-X-X.png,stimuli/mB-M_none_O-O-X.png,stimuli/mB-M_none_O-X-X.png,stimuli/mW-L_none_O-X-X.png,stimuli/m0_none_O-X-X.png,stimuli/m0_wW-L_O-X-X.png,2,19,75,21,,,,,,,,,708.4088779544691,715.0799436798552,715.8168364888988,715.8168364888988,715.8168364888988,716.7090939829359,716.7090939829359,right,0.4661934223258868,709.4703049099771,S5,T-M,2023-01-27_13h10.10.050,knowing_that_K_ONLY,2022.2.5,59.73844635793314,
Does Anna know that the book is here?,Does Anna think that the book is here?,Is the book here?,late,10,mem_1,mem_K,1,1,1,no,O-X-B,X-X-B,X-X-X,R,stimuli/blue-R.png,mB-M,m0,stimuli/m0_w0_O-X-B.png,stimuli/mW-R_w0_O-X-B.png,stimuli/mB-M_w0_O-X-B.png,stimuli/mB-M_w0_X-X-B.png,stimuli/mB-M_w0_X-X-X.png,stimuli/mW-L_w0_X-X-X.png,stimuli/m0_wW-R_X-X-X.png,stimuli/m0_none_X-X-X.png,stimuli/m0_none_X-X-X.png,stimuli/m0_wW-L_X-X-X.png,2,20,76,9,,,,,,,,,717.1922412614804,723.8619371599052,724.6027851437684,724.6027851437684,724.6027851437684,725.4922830942087,725.4922830942087,left,0.2591115131508559,718.2547547753202,S5,T-M,2023-01-27_13h10.10.050,knowing_that_K_ONLY,2022.2.5,59.73844635793314,
Does Anna know that the book is here?,Does Anna think that the book is here?,Is the book here?,late,17,mem_8,mem_K,1,1,1,switch,O-X-B,B-X-O,X-X-O,L,stimuli/blue-L.png,mB-M,m0,stimuli/m0_w0_O-X-B.png,stimuli/mW-R_w0_O-X-B.png,stimuli/mB-M_w0_O-X-B.png,stimuli/mB-M_w0_B-X-O.png,stimuli/mB-M_w0_X-X-O.png,stimuli/mW-L_w0_X-X-O.png,stimuli/m0_wW-R_X-X-O.png,stimuli/m0_none_X-X-O.png,stimuli/m0_none_X-X-O.png,stimuli/m0_wW-L_X-X-O.png,2,21,77,16,,,,,,,,,725.7756268321536,732.4483501444338,733.1884339766111,733.1884339766111,733.1884339766111,734.075625035679,734.075625035679,left,0.5398942842148244,726.8281848798506,S5,T-M,2023-01-27_13h10.10.050,knowing_that_K_ONLY,2022.2.5,59.73844635793314,
Does Anna know that the book is here?,Does Anna think that the book is here?,Is the book here?,early,9,per_9,per_K,1,1,1,switch,X-O-B,X-B-O,X-B-X,M,stimuli/blue-M.png,mB-R,m0,stimuli/m0_w0_X-O-B.png,stimuli/m0_wW-R_X-O-B.png,stimuli/m0_none_X-O-B.png,stimuli/mW-R_none_X-O-B.png,stimuli/mB-R_none_X-O-B.png,stimuli/mB-R_none_X-B-O.png,stimuli/mB-R_none_X-B-X.png,stimuli/mW-L_none_X-B-X.png,stimuli/m0_none_X-B-X.png,stimuli/m0_wW-L_X-B-X.png,2,22,78,8,,,,,,,,,734.6422566920519,741.2904793496709,742.0547318058088,742.0547318058088,742.0547318058088,742.9423979735002,742.9423979735002,left,0.47319044719915837,735.6958567064721,S5,T-M,2023-01-27_13h10.10.050,knowing_that_K_ONLY,2022.2.5,59.73844635793314,
Does Anna know that the book is here?,Does Anna think that the book is here?,Is the book here?,late,11,mem_2,mem_K,1,1,1,no,O-B-O,O-B-X,O-X-X,M,stimuli/blue-M.png,mB-L,m0,stimuli/m0_w0_O-B-O.png,stimuli/mW-R_w0_O-B-O.png,stimuli/mB-L_w0_O-B-O.png,stimuli/mB-L_w0_O-B-X.png,stimuli/mB-L_w0_O-X-X.png,stimuli/mW-L_w0_O-X-X.png,stimuli/m0_wW-R_O-X-X.png,stimuli/m0_none_O-X-X.png,stimuli/m0_none_O-X-X.png,stimuli/m0_wW-L_O-X-X.png,2,23,79,10,,,,,,,,,743.4424383946462,750.1158517532749,750.8561620720429,750.8561620720429,750.8561620720429,751.7423150140094,751.7423150140094,left,0.41001255123410374,744.4984562980244,S5,T-M,2023-01-27_13h10.10.050,knowing_that_K_ONLY,2022.2.5,59.73844635793314,
Does Anna know that the book is here?,Does Anna think that the book is here?,Is the book here?,early,21,no_3,no_K,0,0,0,no,X-X-O,X-O-O,X-X-O,M,stimuli/blue-M.png,mB-M,m0,stimuli/m0_w0_X-X-O.png,stimuli/m0_wW-R_X-X-O.png,stimuli/m0_none_X-X-O.png,stimuli/mW-R_none_X-X-O.png,stimuli/mB-M_none_X-X-O.png,stimuli/mB-M_none_X-O-O.png,stimuli/mB-M_none_X-X-O.png,stimuli/mW-L_none_X-X-O.png,stimuli/m0_none_X-X-O.png,stimuli/m0_wW-L_X-X-O.png,2,24,80,20,,,,,,,,,752.1756265755976,758.8469341860618,759.5849443504121,759.5849443504121,759.5849443504121,760.4756709745852,760.4756709745852,right,0.5561785434838384,753.2363875448937,S5,T-M,2023-01-27_13h10.10.050,knowing_that_K_ONLY,2022.2.5,59.73844635793314,
Does Anna know that the book is here?,Does Anna think that the book is here?,Is the book here?,late,12,mem_3,mem_K,1,1,1,no,X-O-B,X-O-B,X-O-X,R,stimuli/blue-R.png,mB-M,m0,stimuli/m0_w0_X-O-B.png,stimuli/mW-R_w0_X-O-B.png,stimuli/mB-M_w0_X-O-B.png,stimuli/mB-M_w0_X-O-B.png,stimuli/mB-M_w0_X-O-X.png,stimuli/mW-L_w0_X-O-X.png,stimuli/m0_wW-R_X-O-X.png,stimuli/m0_none_X-O-X.png,stimuli/m0_none_X-O-X.png,stimuli/m0_wW-L_X-O-X.png,2,25,81,11,,,,,,,,,761.0589599837549,767.73190721625,768.4693213293795,768.4693213293795,768.4693213293795,769.3588988387492,769.3588988387492,left,0.36859918502159417,762.1195547773968,S5,T-M,2023-01-27_13h10.10.050,knowing_that_K_ONLY,2022.2.5,59.73844635793314,
Does Anna know that the book is here?,Does Anna think that the book is here?,Is the book here?,late,6,per_6,per_K,1,1,1,no,X-B-X,O-B-X,X-B-X,M,stimuli/blue-M.png,mB-L,m0,stimuli/m0_w0_X-B-X.png,stimuli/mW-R_w0_X-B-X.png,stimuli/mB-L_w0_X-B-X.png,stimuli/mB-L_w0_O-B-X.png,stimuli/mB-L_w0_X-B-X.png,stimuli/mW-L_w0_X-B-X.png,stimuli/m0_wW-R_X-B-X.png,stimuli/m0_none_X-B-X.png,stimuli/m0_none_X-B-X.png,stimuli/m0_wW-L_X-B-X.png,2,26,82,5,,,,,,,,,769.7588924869196,776.43163697212,777.1727919640252,777.1727919640252,777.1727919640252,778.0590385803953,778.0590385803953,left,0.5245711493771523,770.8095119245118,S5,T-M,2023-01-27_13h10.10.050,knowing_that_K_ONLY,2022.2.5,59.73844635793314,
Does Anna know that the book is here?,Does Anna think that the book is here?,Is the book here?,late,16,mem_7,mem_K,1,1,1,switch,B-X-O,O-X-B,O-X-X,R,stimuli/blue-R.png,mB-M,m0,stimuli/m0_w0_B-X-O.png,stimuli/mW-R_w0_B-X-O.png,stimuli/mB-M_w0_B-X-O.png,stimuli/mB-M_w0_O-X-B.png,stimuli/mB-M_w0_O-X-X.png,stimuli/mW-L_w0_O-X-X.png,stimuli/m0_wW-R_O-X-X.png,stimuli/m0_none_O-X-X.png,stimuli/m0_none_O-X-X.png,stimuli/m0_wW-L_O-X-X.png,2,27,83,15,,,,,,,,,778.609100463218,785.2819825727493,786.0179598111426,786.0179598111426,786.0179598111426,786.9091031579301,786.9091031579301,left,0.4744951513130218,779.6613916030619,S5,T-M,2023-01-27_13h10.10.050,knowing_that_K_ONLY,2022.2.5,59.73844635793314,
