trialNo,condition,opacityValue,onsetLatency,stimStartValue,stimShape,stimPath,trials.thisRepN,trials.thisTrialN,trials.thisN,trials.thisIndex,thisRow.t,notes,welcome.started,inst_text.started,inst_resp.started,welcome.stopped,inst_resp.keys,inst_resp.rt,inst_resp.duration,trial.started,cross.started,cross.stopped,stimulus.started,key_resp.started,stimulus.stopped,trial.stopped,key_resp.keys,key_resp.rt,key_resp.duration,key_resp.stopped,thankyou.started,text.started,text.stopped,thankyou.stopped,participant,date,expName,psychopyVersion,frameRate,expStart,
,,,,,,,,,,,,,0.056630600010976195,0.06198580004274845,0.06198580004274845,32.16133160004392,space,32.087021599989384,None,,,,,,,,,,,,,,,,S4,2023-10-30_14h02.34.401,example_experiment,2023.2.2,60.0527022613064,2023-10-30 14h02.45.702953 +0200,
36,low,0.05,2,3,pentagon,./stimuli/pentagon.png,0,0,0,35,32.23507170006633,,,,,,,,,32.223434700164944,32.23507170006633,33.242684200173244,35.21213860018179,35.21213860018179,35.4258742001839,36.227206100011244,space,1.0091453997883946,None,,,,,,S4,2023-10-30_14h02.34.401,example_experiment,2023.2.2,60.0527022613064,2023-10-30 14h02.45.702953 +0200,
13,high,1,0.5,1.5,pentagon,./stimuli/pentagon.png,0,1,1,12,36.24508630018681,,,,,,,,,36.22762260003947,36.24508630018681,37.259254900040105,37.74274990009144,37.74274990009144,37.94261749996804,38.06094930018298,space,0.30283710011281073,None,,,,,,S4,2023-10-30_14h02.34.401,example_experiment,2023.2.2,60.0527022613064,2023-10-30 14h02.45.702953 +0200,
11,high,1,1.5,2.5,square,./stimuli/square.png,0,2,2,10,38.09234920004383,,,,,,,,,38.06241720006801,38.09234920004383,39.092700500041246,40.57605120004155,40.57605120004155,40.77587980008684,40.89414740004577,space,0.30153460009023547,None,,,,,,S4,2023-10-30_14h02.34.401,example_experiment,2023.2.2,60.0527022613064,2023-10-30 14h02.45.702953 +0200,
14,high,1,1,2,pentagon,./stimuli/pentagon.png,0,3,3,13,40.91381840012036,,,,,,,,,40.89545960002579,40.91381840012036,41.92591010010801,42.90939260018058,42.90939260018058,43.109284800011665,43.19436470000073,space,0.2802031000610441,None,,,,,,S4,2023-10-30_14h02.34.401,example_experiment,2023.2.2,60.0527022613064,2023-10-30 14h02.45.702953 +0200,
27,low,0.05,1.5,2.5,circle,./stimuli/circle.png,0,4,4,26,43.224548200145364,,,,,,,,,43.1956776001025,43.224548200145364,44.22597960010171,45.70939250010997,45.70939250010997,45.90923109999858,46.19410379999317,space,0.47218899987637997,None,,,,,,S4,2023-10-30_14h02.34.401,example_experiment,2023.2.2,60.0527022613064,2023-10-30 14h02.45.702953 +0200,
19,high,1,1.5,2.5,heptagon,./stimuli/heptagon.png,0,5,5,18,46.215256800176576,,,,,,,,,46.1953384000808,46.215256800176576,47.22586480015889,48.70937449997291,48.70937449997291,48.909246100112796,49.027748099993914,space,0.3039993999991566,None,,,,,,S4,2023-10-30_14h02.34.401,example_experiment,2023.2.2,60.0527022613064,2023-10-30 14h02.45.702953 +0200,
32,low,0.05,2,3,square,./stimuli/square.png,0,6,6,31,49.04887600010261,,,,,,,,,49.02896889997646,49.04887600010261,50.059253700077534,52.04257620009594,52.04257620009594,52.24251430016011,52.49320610007271,space,0.4420386999845505,None,,,,,,S4,2023-10-30_14h02.34.401,example_experiment,2023.2.2,60.0527022613064,2023-10-30 14h02.45.702953 +0200,
37,low,0.05,0.5,1.5,heptagon,./stimuli/heptagon.png,0,7,7,36,52.510213600005955,,,,,,,,,52.493479300057516,52.510213600005955,53.52583290007897,53.99277570005506,53.99277570005506,54.19268590002321,54.44446220016107,space,0.4444768999237567,None,,,,,,S4,2023-10-30_14h02.34.401,example_experiment,2023.2.2,60.0527022613064,2023-10-30 14h02.45.702953 +0200,
38,low,0.05,1,2,heptagon,./stimuli/heptagon.png,0,8,8,37,54.463989900192246,,,,,,,,,54.44568660017103,54.463989900192246,55.47588980011642,56.459369300166145,56.459369300166145,56.65922520007007,56.84406210016459,space,0.36958560021594167,None,,,,,,S4,2023-10-30_14h02.34.401,example_experiment,2023.2.2,60.0527022613064,2023-10-30 14h02.45.702953 +0200,
39,low,0.05,1.5,2.5,heptagon,./stimuli/heptagon.png,0,9,9,38,56.86360020004213,,,,,,,,,56.84538900014013,56.86360020004213,57.87603659997694,59.35943050007336,59.35943050007336,59.55923949996941,59.72734450013377,space,0.35040060011669993,None,,,,,,S4,2023-10-30_14h02.34.401,example_experiment,2023.2.2,60.0527022613064,2023-10-30 14h02.45.702953 +0200,
33,low,0.05,0.5,1.5,pentagon,./stimuli/pentagon.png,0,10,10,32,59.74669940001331,,,,,,,,,59.72855870006606,59.74669940001331,60.759273200063035,61.24278640002012,61.24278640002012,61.4425532000605,61.62736689997837,space,0.3704925999045372,None,,,,,,S4,2023-10-30_14h02.34.401,example_experiment,2023.2.2,60.0527022613064,2023-10-30 14h02.45.702953 +0200,
9,high,1,0.5,1.5,square,./stimuli/square.png,0,11,11,8,61.652112800162286,,,,,,,,,61.62858230015263,61.652112800162286,62.65921990014613,63.142709400039166,63.142709400039166,63.342616399982944,63.44402260007337,space,0.2865788999479264,None,,,,,,S4,2023-10-30_14h02.34.401,example_experiment,2023.2.2,60.0527022613064,2023-10-30 14h02.45.702953 +0200,
41,catch,0,2,3,catch,./stimuli/catch.png,0,12,12,40,63.45996820018627,,,,,,,,,63.445244500180706,63.45996820018627,64.45925389998592,66.45937880012207,66.45937880012207,66.65928440005518,68.44284970010631,None,,,68.4595435000956,,,,,S4,2023-10-30_14h02.34.401,example_experiment,2023.2.2,60.0527022613064,2023-10-30 14h02.45.702953 +0200,
20,high,1,2,3,heptagon,./stimuli/heptagon.png,0,13,13,19,68.4595435000956,,,,,,,,,68.4430937001016,68.4595435000956,69.45922409999184,71.4427245000843,71.4427245000843,71.6426713000983,71.74410650017671,space,0.29090550006367266,None,,,,,,S4,2023-10-30_14h02.34.401,example_experiment,2023.2.2,60.0527022613064,2023-10-30 14h02.45.702953 +0200,
15,high,1,1.5,2.5,pentagon,./stimuli/pentagon.png,0,14,14,14,71.76386900013313,,,,,,,,,71.74532030010596,71.76386900013313,72.7755984000396,74.2593721000012,74.2593721000012,74.45938470005058,74.5280069001019,space,0.2666851000394672,None,,,,,,S4,2023-10-30_14h02.34.401,example_experiment,2023.2.2,60.0527022613064,2023-10-30 14h02.45.702953 +0200,
12,high,1,2,3,square,./stimuli/square.png,0,15,15,11,74.55446920008399,,,,,,,,,74.52922830008902,74.55446920008399,75.55934400018305,77.5427222000435,77.5427222000435,77.74267810001038,77.84449469996616,space,0.2949123000726104,None,,,,,,S4,2023-10-30_14h02.34.401,example_experiment,2023.2.2,60.0527022613064,2023-10-30 14h02.45.702953 +0200,
23,low,0.05,1.5,2.5,triangle,./stimuli/triangle.png,0,16,16,22,77.87570590013638,,,,,,,,,77.84572029998526,77.87570590013638,78.87591050006449,80.35939790005796,80.35939790005796,80.55927069997415,80.77781480015256,space,0.4056310001760721,None,,,,,,S4,2023-10-30_14h02.34.401,example_experiment,2023.2.2,60.0527022613064,2023-10-30 14h02.45.702953 +0200,
29,low,0.05,0.5,1.5,square,./stimuli/square.png,0,17,17,28,80.79738260013983,,,,,,,,,80.77913520019501,80.79738260013983,81.80911669996567,82.29274659999646,82.29274659999646,82.4925930001773,82.6941550001502,space,0.3842998999170959,None,,,,,,S4,2023-10-30_14h02.34.401,example_experiment,2023.2.2,60.0527022613064,2023-10-30 14h02.45.702953 +0200,
34,low,0.05,1,2,pentagon,./stimuli/pentagon.png,0,18,18,33,82.7180367000401,,,,,,,,,82.69536720006727,82.7180367000401,83.72594420006499,84.70924710016698,84.70924710016698,84.90937989996746,85.14425710006617,space,0.4236677000299096,None,,,,,,S4,2023-10-30_14h02.34.401,example_experiment,2023.2.2,60.0527022613064,2023-10-30 14h02.45.702953 +0200,
28,low,0.05,2,3,circle,./stimuli/circle.png,0,19,19,27,85.16350949998014,,,,,,,,,85.14548900001682,85.16350949998014,86.17594740004279,88.15937450015917,88.15937450015917,88.35932300006971,88.51103330007754,space,0.3422487999778241,None,,,,,,S4,2023-10-30_14h02.34.401,example_experiment,2023.2.2,60.0527022613064,2023-10-30 14h02.45.702953 +0200,
17,high,1,0.5,1.5,heptagon,./stimuli/heptagon.png,0,20,20,16,88.53060170006938,,,,,,,,,88.51228010002524,88.53060170006938,89.54258410003968,90.02600730000995,90.02600730000995,90.22587370011024,90.36088669998571,space,0.3226930999662727,None,,,,,,S4,2023-10-30_14h02.34.401,example_experiment,2023.2.2,60.0527022613064,2023-10-30 14h02.45.702953 +0200,
4,high,1,2,3,triangle,./stimuli/triangle.png,0,21,21,3,90.38490950013511,,,,,,,,,90.36220380011946,90.38490950013511,91.39260100014508,93.37605970003642,93.37605970003642,93.57585999998264,93.6439692999702,space,0.2531802000012249,None,,,,,,S4,2023-10-30_14h02.34.401,example_experiment,2023.2.2,60.0527022613064,2023-10-30 14h02.45.702953 +0200,
35,low,0.05,1.5,2.5,pentagon,./stimuli/pentagon.png,0,22,22,34,93.66483300016262,,,,,,,,,93.6451970001217,93.66483300016262,94.67587060015649,96.15940830018371,96.15940830018371,96.35919800004922,96.57763530011289,space,0.4062703000381589,None,,,,,,S4,2023-10-30_14h02.34.401,example_experiment,2023.2.2,60.0527022613064,2023-10-30 14h02.45.702953 +0200,
24,low,0.05,2,3,triangle,./stimuli/triangle.png,0,23,23,23,96.59875110001303,,,,,,,,,96.57892140001059,96.59875110001303,97.60920130019076,99.59274850017391,99.59274850017391,99.79251560010016,99.99433540017344,space,0.3973202998749912,None,,,,,,S4,2023-10-30_14h02.34.401,example_experiment,2023.2.2,60.0527022613064,2023-10-30 14h02.45.702953 +0200,
3,high,1,1.5,2.5,triangle,./stimuli/triangle.png,0,24,24,2,100.01590470015071,,,,,,,,,99.99575880006887,100.01590470015071,101.02596250013448,102.50941970013082,102.50941970013082,102.70922500011511,102.77757630008273,space,0.2554819998331368,None,,,,,,S4,2023-10-30_14h02.34.401,example_experiment,2023.2.2,60.0527022613064,2023-10-30 14h02.45.702953 +0200,
31,low,0.05,1.5,2.5,square,./stimuli/square.png,0,25,25,30,102.79866630001925,,,,,,,,,102.77886530011892,102.79866630001925,103.8092965001706,105.29274770012125,105.29274770012125,105.49260270013474,105.72743050009012,space,0.4239628999494016,None,,,,,,S4,2023-10-30_14h02.34.401,example_experiment,2023.2.2,60.0527022613064,2023-10-30 14h02.45.702953 +0200,
6,high,1,1,2,circle,./stimuli/circle.png,0,26,26,5,105.74691210011952,,,,,,,,,105.72865410009399,105.74691210011952,106.75925660016946,107.74271160014905,107.74271160014905,107.94256380014122,108.06080470001325,space,0.30256749992258847,None,,,,,,S4,2023-10-30_14h02.34.401,example_experiment,2023.2.2,60.0527022613064,2023-10-30 14h02.45.702953 +0200,
30,low,0.05,1,2,square,./stimuli/square.png,0,27,27,29,108.08002170012332,,,,,,,,,108.06209380016662,108.08002170012332,109.09259750018828,110.07606860017404,110.07606860017404,110.27595970011316,110.56108830007724,space,0.4735598999541253,None,,,,,,S4,2023-10-30_14h02.34.401,example_experiment,2023.2.2,60.0527022613064,2023-10-30 14h02.45.702953 +0200,
7,high,1,1.5,2.5,circle,./stimuli/circle.png,0,28,28,6,110.57982000010088,,,,,,,,,110.56231850013137,110.57982000010088,111.59262450016104,113.07609640015289,113.07609640015289,113.27594860014506,113.32756120013073,space,0.24081650003790855,None,,,,,,S4,2023-10-30_14h02.34.401,example_experiment,2023.2.2,60.0527022613064,2023-10-30 14h02.45.702953 +0200,
40,low,0.05,2,3,heptagon,./stimuli/heptagon.png,0,29,29,39,113.34804790001363,,,,,,,,,113.32877610018477,113.34804790001363,114.35927450004965,116.34270280017518,116.34270280017518,116.54250190011226,116.65983410016634,space,0.30254460009746253,None,,,,,,S4,2023-10-30_14h02.34.401,example_experiment,2023.2.2,60.0527022613064,2023-10-30 14h02.45.702953 +0200,
18,high,1,1,2,heptagon,./stimuli/heptagon.png,0,30,30,17,116.67609830014408,,,,,,,,,116.66011580009945,116.67609830014408,117.67594010010362,118.65940630016848,118.65940630016848,118.85926980013028,118.92770150001161,space,0.2579574000556022,None,,,,,,S4,2023-10-30_14h02.34.401,example_experiment,2023.2.2,60.0527022613064,2023-10-30 14h02.45.702953 +0200,
44,catch,0,2,3,catch,./stimuli/catch.png,0,31,31,43,118.94330970011652,,,,,,,,,118.9289582001511,118.94330970011652,119.94258880009875,121.94262610003352,121.94262610003352,122.14260360016488,123.92680160002783,None,,,123.94286289997399,,,,,S4,2023-10-30_14h02.34.401,example_experiment,2023.2.2,60.0527022613064,2023-10-30 14h02.45.702953 +0200,
26,low,0.05,1,2,circle,./stimuli/circle.png,0,32,32,25,123.94286289997399,,,,,,,,,123.92773670004681,123.94286289997399,124.94255880010314,125.94278859999031,125.94278859999031,126.14258700003847,126.34428750001825,space,0.3988099000416696,None,,,,,,S4,2023-10-30_14h02.34.401,example_experiment,2023.2.2,60.0527022613064,2023-10-30 14h02.45.702953 +0200,
2,high,1,1,2,triangle,./stimuli/triangle.png,0,33,33,1,126.36459180014208,,,,,,,,,126.34550380008295,126.36459180014208,127.37588619999588,128.35938400006853,128.35938400006853,128.5592600000091,128.66083379997872,space,0.29418630013242364,None,,,,,,S4,2023-10-30_14h02.34.401,example_experiment,2023.2.2,60.0527022613064,2023-10-30 14h02.45.702953 +0200,
10,high,1,1,2,square,./stimuli/square.png,0,34,34,9,128.68865310004912,,,,,,,,,128.66207100008614,128.68865310004912,129.69259380013682,130.67611490003765,130.67611490003765,130.87591040018015,130.92771720001474,space,0.24879759992472827,None,,,,,,S4,2023-10-30_14h02.34.401,example_experiment,2023.2.2,60.0527022613064,2023-10-30 14h02.45.702953 +0200,
16,high,1,2,3,pentagon,./stimuli/pentagon.png,0,35,35,15,130.952864699997,,,,,,,,,130.92893739999272,130.952864699997,131.95927980006672,133.9427359001711,133.9427359001711,134.1426397000905,134.21089010010473,space,0.2622012998908758,None,,,,,,S4,2023-10-30_14h02.34.401,example_experiment,2023.2.2,60.0527022613064,2023-10-30 14h02.45.702953 +0200,
1,high,1,0.5,1.5,triangle,./stimuli/triangle.png,0,36,36,0,134.23400630010292,,,,,,,,,134.21209500008263,134.23400630010292,135.2426408000756,135.72608479997143,135.72608479997143,135.9259572001174,136.0443645999767,space,0.30274129984900355,None,,,,,,S4,2023-10-30_14h02.34.401,example_experiment,2023.2.2,60.0527022613064,2023-10-30 14h02.45.702953 +0200,
5,high,1,0.5,1.5,circle,./stimuli/circle.png,0,37,37,4,136.06490029999986,,,,,,,,,136.04573060013354,136.06490029999986,137.07596300006844,137.55939750000834,137.55939750000834,137.75925740017556,137.89406520011835,space,0.3173827000427991,None,,,,,,S4,2023-10-30_14h02.34.401,example_experiment,2023.2.2,60.0527022613064,2023-10-30 14h02.45.702953 +0200,
22,low,0.05,1,2,triangle,./stimuli/triangle.png,0,38,38,21,137.91423810017295,,,,,,,,,137.89527760003693,137.91423810017295,138.92592349997722,139.90945310005918,139.90945310005918,140.10929210018367,140.29492180002853,space,0.38348850002512336,None,,,,,,S4,2023-10-30_14h02.34.401,example_experiment,2023.2.2,60.0527022613064,2023-10-30 14h02.45.702953 +0200,
25,low,0.05,0.5,1.5,circle,./stimuli/circle.png,0,39,39,24,140.31657430017367,,,,,,,,,140.29625979997218,140.31657430017367,141.32598580000922,141.80943650007248,141.80943650007248,142.00930530019104,142.1614494000096,space,0.34017089987173676,None,,,,,,S4,2023-10-30_14h02.34.401,example_experiment,2023.2.2,60.0527022613064,2023-10-30 14h02.45.702953 +0200,
21,low,0.05,0.5,1.5,triangle,./stimuli/triangle.png,0,40,40,20,142.18325970019214,,,,,,,,,142.16286000004038,142.18325970019214,143.19265209999867,143.67601569998078,143.67601569998078,143.87597170006484,143.97799440007657,space,0.2886918999720365,None,,,,,,S4,2023-10-30_14h02.34.401,example_experiment,2023.2.2,60.0527022613064,2023-10-30 14h02.45.702953 +0200,
43,catch,0,2,3,catch,./stimuli/catch.png,0,41,41,42,143.99339870014228,,,,,,,,,143.9792279000394,143.99339870014228,144.99258730001748,146.9926845000591,146.9926845000591,147.1926806999836,148.97695769998245,None,,,148.99268630007282,,,,,S4,2023-10-30_14h02.34.401,example_experiment,2023.2.2,60.0527022613064,2023-10-30 14h02.45.702953 +0200,
8,high,1,2,3,circle,./stimuli/circle.png,0,42,42,7,148.99268630007282,,,,,,,,,148.97788310004398,148.99268630007282,149.9926820001565,151.9927409000229,151.9927409000229,152.192643500166,152.3281215999741,space,0.33268380002118647,None,,,,,,S4,2023-10-30_14h02.34.401,example_experiment,2023.2.2,60.0527022613064,2023-10-30 14h02.45.702953 +0200,
42,catch,0,2,3,catch,./stimuli/catch.png,0,43,43,41,152.34334910009056,,,,,,,,,152.32934479997493,152.34334910009056,153.34263089997694,155.34270730009302,155.34270730009302,155.54266040003859,157.32698360015638,None,,,157.34266400011256,,,,,S4,2023-10-30_14h02.34.401,example_experiment,2023.2.2,60.0527022613064,2023-10-30 14h02.45.702953 +0200,
,,,,,,,,,,,,,,,,,,,,,,,,,,,,,,,157.32746950001456,157.34266400011256,160.34262180002406,160.32715470017865,,,,,,,
