position,xCordMain,durationCondition,durationStim,staircaseLoop.thisTrialN,staircaseLoop.stepSize,staircaseLoop.intensity,trials.thisRepN,trials.thisTrialN,trials.thisN,trials.thisIndex,thisRow.t,notes,staircaseRoutine.started,cross_staircase.started,cross_staircase.stopped,grating_staircase.started,key_resp_staircase.started,grating_staircase.stopped,staircaseRoutine.stopped,staircaseLoop.response,key_resp_staircase.rt,start_main.started,text_start_main.started,key_resp_start_main.started,start_main.stopped,key_resp_start_main.keys,key_resp_start_main.rt,key_resp_start_main.duration,trial.started,cross_main.started,cross_main.stopped,grating.started,key_resp_main.started,grating.stopped,trial.stopped,key_resp_main.keys,key_resp_main.rt,key_resp_main.duration,participant,date,expName,psychopyVersion,frameRate,expStart,
,,,,0,0.8,0.5,,,,,0.03867712299688719,,0.02542863400594797,0.03867712299688719,0.5279496489965823,1.0084595780062955,1.0084595780062955,1.106607369001722,1.413301164007862,1,0.3840009289997397,,,,,,,,,,,,,,,,,,S1,2023-11-06_14h47.09.923,example_staircase,2023.2.3,None,2023-11-06 14h47.34.341476 +0200,
,,,,1,0.8,0.07924465962305566,,,,,1.4627577130013378,,1.4133674659969984,1.4627577130013378,1.9568496970023261,2.4197412930079736,2.4197412930079736,2.5115484560083132,2.8790191750013037,1,0.45787610800471157,,,,,,,,,,,,,,,,,,S1,2023-11-06_14h47.09.923,example_staircase,2023.2.3,None,2023-11-06 14h47.34.341476 +0200,
,,,,2,0.8,0.012559432157547895,,,,,2.8899216090067057,,2.8790840010042302,2.8899216090067057,3.3791050630097743,3.874921713999356,3.874921713999356,3.9623380130069563,4.342002222998417,1,0.46620584299671464,,,,,,,,,,,,,,,,,,S1,2023-11-06_14h47.09.923,example_staircase,2023.2.3,None,2023-11-06 14h47.34.341476 +0200,
,,,,3,0.8,0.001990535852767485,,,,,4.34843624199857,,4.342066486002295,4.34843624199857,4.845632946002297,5.336993899996742,5.336993899996742,5.429632547995425,5.825037401009467,1,0.47673571700579487,,,,,,,,,,,,,,,,,,S1,2023-11-06_14h47.09.923,example_staircase,2023.2.3,None,2023-11-06 14h47.34.341476 +0200,
,,,,4,0.8,0.0003154786722400964,,,,,5.831574801995885,,5.825111664002179,5.831574801995885,6.329277880999143,6.820582574000582,6.820582574000582,6.912658311004634,7.3085446629993385,1,0.47763957300048787,,,,,,,,,,,,,,,,,,S1,2023-11-06_14h47.09.923,example_staircase,2023.2.3,None,2023-11-06 14h47.34.341476 +0200,
,,,,5,0.8,4.9999999999999955e-05,,,,,7.315150634996826,,7.308610141000827,7.315150634996826,7.812698491004994,8.305160210002214,8.305160210002214,8.397084666008595,8.726108436996583,1,0.41154820699011907,,,,,,,,,,,,,,,,,,S1,2023-11-06_14h47.09.923,example_staircase,2023.2.3,None,2023-11-06 14h47.34.341476 +0200,
,,,,6,0.8,7.924465962305559e-06,,,,,8.732722098007798,,8.726184346000082,8.732722098007798,9.230565272999229,9.721944435004843,9.721944435004843,9.814009417008492,10.143269002001034,1,0.41089265800837893,,,,,,,,,,,,,,,,,,S1,2023-11-06_14h47.09.923,example_staircase,2023.2.3,None,2023-11-06 14h47.34.341476 +0200,
,,,,7,0.8,1.2559432157547886e-06,,,,,10.14984350099985,,10.143333564003115,10.14984350099985,10.647390191006707,11.138672001005034,11.138672001005034,11.230748022004263,11.848147714001243,1,0.7044039950123988,,,,,,,,,,,,,,,,,,S1,2023-11-06_14h47.09.923,example_staircase,2023.2.3,None,2023-11-06 14h47.34.341476 +0200,
,,,,8,0.4,1.9905358527674836e-07,,,,,11.859337582005537,,11.84821348200785,11.859337582005537,12.347259347996442,12.843180341995321,12.843180341995321,12.930789773003198,13.444337020002422,0,0.5974177099997178,,,,,,,,,,,,,,,,,,S1,2023-11-06_14h47.09.923,example_staircase,2023.2.3,None,2023-11-06 14h47.34.341476 +0200,
,,,,9,0.4,4.999999999999993e-07,,,,,13.450931751998723,,13.444413874996826,13.450931751998723,13.948358506007935,14.440195157003473,14.440195157003473,14.53222492900386,14.894433476001723,1,0.4531585420045303,,,,,,,,,,,,,,,,,,S1,2023-11-06_14h47.09.923,example_staircase,2023.2.3,None,2023-11-06 14h47.34.341476 +0200,
,,,,10,0.4,4.999999999999993e-07,,,,,14.900805733006564,,14.894495918008033,14.900805733006564,15.398410727008013,15.890192847000435,15.890192847000435,15.98211636999622,16.449217750996468,0,0.5546431580005446,,,,,,,,,,,,,,,,,,S1,2023-11-06_14h47.09.923,example_staircase,2023.2.3,None,2023-11-06 14h47.34.341476 +0200,
,,,,11,0.4,1.2559432157547884e-06,,,,,16.460670069005573,,16.449289263007813,16.460670069005573,16.948726175003685,17.445934959003353,17.445934959003353,17.544007275995682,18.09546061299625,1,0.6409891229995992,,,,,,,,,,,,,,,,,,S1,2023-11-06_14h47.09.923,example_staircase,2023.2.3,None,2023-11-06 14h47.34.341476 +0200,
,,,,12,0.4,1.2559432157547884e-06,,,,,18.10210910900787,,18.095533959000022,18.10210910900787,18.599727474007523,19.09172392000619,19.09172392000619,19.18320085099549,19.829043085002922,0,0.7276786950096721,,,,,,,,,,,,,,,,,,S1,2023-11-06_14h47.09.923,example_staircase,2023.2.3,None,2023-11-06 14h47.34.341476 +0200,
,,,,13,0.4,3.1547867224009623e-06,,,,,19.83565507500316,,19.82912345600198,19.83565507500316,20.333611194000696,20.82520617300179,20.82520617300179,20.91676679700322,21.43569508200744,1,0.6037423539964948,,,,,,,,,,,,,,,,,,S1,2023-11-06_14h47.09.923,example_staircase,2023.2.3,None,2023-11-06 14h47.34.341476 +0200,
,,,,14,0.2,3.1547867224009623e-06,,,,,21.445328208006686,,21.435774497003877,21.445328208006686,21.933350621009595,22.441987454003538,22.441987454003538,22.533515903996886,22.91915244499978,1,0.47047183000540826,,,,,,,,,,,,,,,,,,S1,2023-11-06_14h47.09.923,example_staircase,2023.2.3,None,2023-11-06 14h47.34.341476 +0200,
,,,,15,0.1,1.9905358527674837e-06,,,,,22.928739879003842,,22.91923836400383,22.928739879003842,23.417894373997115,23.926914477997343,23.926914477997343,24.01831827600836,24.530413761996897,0,0.5950491089897696,,,,,,,,,,,,,,,,,,S1,2023-11-06_14h47.09.923,example_staircase,2023.2.3,None,2023-11-06 14h47.34.341476 +0200,
,,,,16,0.1,2.5059361681363583e-06,,,,,24.537038328999188,,24.53049608100264,24.537038328999188,25.029854289998184,25.526017683005193,25.526017683005193,25.61811655900965,26.01858018200437,1,0.4913574529928155,,,,,,,,,,,,,,,,,,S1,2023-11-06_14h47.09.923,example_staircase,2023.2.3,None,2023-11-06 14h47.34.341476 +0200,
,,,,17,0.1,2.5059361681363583e-06,,,,,26.030207803996745,,26.01862937200349,26.030207803996745,26.51799056099844,27.01530013300362,27.01530013300362,27.113520059006987,27.447360738995485,1,0.42016698500083294,,,,,,,,,,,,,,,,,,S1,2023-11-06_14h47.09.923,example_staircase,2023.2.3,None,2023-11-06 14h47.34.341476 +0200,
,,,,18,0.1,1.9905358527674837e-06,,,,,27.453928696995717,,27.44742626399966,27.453928696995717,27.95167913500336,28.444268703009584,28.444268703009584,28.535859242998413,28.915164999998524,1,0.464471858998877,,,,,,,,,,,,,,,,,,S1,2023-11-06_14h47.09.923,example_staircase,2023.2.3,None,2023-11-06 14h47.34.341476 +0200,
,,,,19,0.1,1.9905358527674837e-06,,,,,28.921730335001484,,28.915226482000435,28.921730335001484,29.419342512002913,29.912287455998012,29.912287455998012,30.002698380005313,30.365270238995436,1,0.4482906560006086,,,,,,,,,,,,,,,,,,S1,2023-11-06_14h47.09.923,example_staircase,2023.2.3,None,2023-11-06 14h47.34.341476 +0200,
,,,,20,0.1,1.5811388300841875e-06,,,,,30.371853845004807,,30.365345559999696,30.371853845004807,30.8693822369969,31.360937688004924,31.360937688004924,31.4528101169999,31.882084155004122,1,0.5185034070018446,,,,,,,,,,,,,,,,,,S1,2023-11-06_14h47.09.923,example_staircase,2023.2.3,None,2023-11-06 14h47.34.341476 +0200,
,,,,21,0.1,1.5811388300841875e-06,,,,,31.888660914002685,,31.882173570003943,31.888660914002685,32.38633253000444,32.877753417007625,32.877753417007625,32.97002874100872,33.34973492899735,1,0.46333209400472697,,,,,,,,,,,,,,,,,,S1,2023-11-06_14h47.09.923,example_staircase,2023.2.3,None,2023-11-06 14h47.34.341476 +0200,
,,,,22,0.1,1.2559432157547882e-06,,,,,33.35624481900595,,33.349800181007595,33.35624481900595,33.854046681997715,34.3455058880063,34.3455058880063,34.43739695800468,34.76657682200312,1,0.4127203730022302,,,,,,,,,,,,,,,,,,S1,2023-11-06_14h47.09.923,example_staircase,2023.2.3,None,2023-11-06 14h47.34.341476 +0200,
,,,,23,0.1,1.2559432157547882e-06,,,,,34.77315369900316,,34.76664059300674,34.77315369900316,35.27064939800766,35.76283542600868,35.76283542600868,35.85446612699889,36.18351216200972,1,0.41336926899384707,,,,,,,,,,,,,,,,,,S1,2023-11-06_14h47.09.923,example_staircase,2023.2.3,None,2023-11-06 14h47.34.341476 +0200,
,,,,24,0.1,9.976311574844383e-07,,,,,36.190120625004056,,36.183606049002265,36.190120625004056,36.68748618999962,37.179193957999814,37.179193957999814,37.27100034999603,37.572595118996105,0,0.39234266900166404,,,,,,,,,,,,,,,,,,S1,2023-11-06_14h47.09.923,example_staircase,2023.2.3,None,2023-11-06 14h47.34.341476 +0200,
,,,,25,0.1,1.2559432157547882e-06,,,,,37.582886479009176,,37.572662345002755,37.582886479009176,38.07191667599545,38.56773541300208,38.56773541300208,38.655643623002106,38.92277750199719,1,0.3537602819997119,,,,,,,,,,,,,,,,,,S1,2023-11-06_14h47.09.923,example_staircase,2023.2.3,None,2023-11-06 14h47.34.341476 +0200,
,,,,26,0.1,1.2559432157547882e-06,,,,,38.93400592400576,,38.92283877800219,38.93400592400576,39.42196060399874,39.919362829008605,39.919362829008605,40.01744404800411,40.25137292900763,1,0.3311995289986953,,,,,,,,,,,,,,,,,,S1,2023-11-06_14h47.09.923,example_staircase,2023.2.3,None,2023-11-06 14h47.34.341476 +0200,
,,,,27,0.1,9.976311574844383e-07,,,,,40.2578861410002,,40.25143794399628,40.2578861410002,40.755532973998925,41.247435582001344,41.247435582001344,41.35085830400931,41.63478390600358,0,0.38478699199913535,,,,,,,,,,,,,,,,,,S1,2023-11-06_14h47.09.923,example_staircase,2023.2.3,None,2023-11-06 14h47.34.341476 +0200,
,,,,28,0.1,1.2559432157547882e-06,,,,,41.641282682001474,,41.63485250499798,41.641282682001474,42.13890228999662,42.630454882004415,42.630454882004415,42.72294585799682,42.984893934000866,0,0.3521455049922224,,,,,,,,,,,,,,,,,,S1,2023-11-06_14h47.09.923,example_staircase,2023.2.3,None,2023-11-06 14h47.34.341476 +0200,
,,,,29,0.1,1.5811388300841875e-06,,,,,42.99146925700188,,42.984972050995566,42.99146925700188,43.48522117300308,43.981230511999456,43.981230511999456,44.07372800000303,44.40270206499554,1,0.4190137749974383,,,,,,,,,,,,,,,,,,S1,2023-11-06_14h47.09.923,example_staircase,2023.2.3,None,2023-11-06 14h47.34.341476 +0200,
,,,,30,0.1,1.5811388300841875e-06,,,,,44.40913002700836,,44.40277247699851,44.40913002700836,44.90689975400164,45.39821733899589,45.39821733899589,45.49037864099955,45.80774329599808,1,0.40710159701120574,,,,,,,,,,,,,,,,,,S1,2023-11-06_14h47.09.923,example_staircase,2023.2.3,None,2023-11-06 14h47.34.341476 +0200,
,,,,31,0.1,1.2559432157547882e-06,,,,,45.81886739299807,,45.80780920799589,45.81886739299807,46.306958013999974,46.80291262399987,46.80291262399987,46.89044718899822,47.16983891100972,1,0.3660785329993814,,,,,,,,,,,,,,,,,,S1,2023-11-06_14h47.09.923,example_staircase,2023.2.3,None,2023-11-06 14h47.34.341476 +0200,
,,,,32,0.1,1.2559432157547882e-06,,,,,47.17622458199912,,47.169899746004376,47.17622458199912,47.67372120900836,48.166820423997706,48.166820423997706,48.25797306900495,48.58721024899569,0,0.4180730499938363,,,,,,,,,,,,,,,,,,S1,2023-11-06_14h47.09.923,example_staircase,2023.2.3,None,2023-11-06 14h47.34.341476 +0200,
,,,,33,0.1,1.5811388300841875e-06,,,,,48.593766613004846,,48.58727598100086,48.593766613004846,49.09139159900951,49.58359147500596,49.58359147500596,49.67470240499824,50.05418176800595,1,0.46350088898907416,,,,,,,,,,,,,,,,,,S1,2023-11-06_14h47.09.923,example_staircase,2023.2.3,None,2023-11-06 14h47.34.341476 +0200,
,,,,34,0.1,1.5811388300841875e-06,,,,,50.060733808000805,,50.0542569100071,50.060733808000805,50.558349344995804,51.04958450800041,51.04958450800041,51.14167425100459,51.4545701629977,0,0.4041588339896407,,,,,,,,,,,,,,,,,,S1,2023-11-06_14h47.09.923,example_staircase,2023.2.3,None,2023-11-06 14h47.34.341476 +0200,
,,,,35,0.1,1.9905358527674837e-06,,,,,51.4609928419959,,51.454635472007794,51.4609928419959,51.95830525099882,52.44929435099766,52.44929435099766,52.54179143499641,52.90912876500806,1,0.4551332000119146,,,,,,,,,,,,,,,,,,S1,2023-11-06_14h47.09.923,example_staircase,2023.2.3,None,2023-11-06 14h47.34.341476 +0200,
,,,,36,0.1,1.9905358527674837e-06,,,,,52.920523027001764,,52.90919086600479,52.920523027001764,53.40950233400508,53.90576499000599,53.90576499000599,54.00480749600683,54.35558423399925,1,0.4386420640075812,,,,,,,,,,,,,,,,,,S1,2023-11-06_14h47.09.923,example_staircase,2023.2.3,None,2023-11-06 14h47.34.341476 +0200,
,,,,37,0.1,1.5811388300841875e-06,,,,,54.36226757100667,,54.355650979996426,54.36226757100667,54.85948063900287,55.3514257420029,55.3514257420029,55.442957435996505,55.77706016499724,1,0.4219631180021679,,,,,,,,,,,,,,,,,,S1,2023-11-06_14h47.09.923,example_staircase,2023.2.3,None,2023-11-06 14h47.34.341476 +0200,
,,,,38,0.1,1.5811388300841875e-06,,,,,55.78834339299647,,55.77712233499915,55.78834339299647,56.27635162700608,56.773252853003214,56.773252853003214,56.8717297109979,57.18908193100651,0,0.405639993987279,,,,,,,,,,,,,,,,,,S1,2023-11-06_14h47.09.923,example_staircase,2023.2.3,None,2023-11-06 14h47.34.341476 +0200,
,,,,39,0.1,1.9905358527674837e-06,,,,,57.195647248008754,,57.18914949000464,57.195647248008754,57.69326982900384,58.18569529100205,58.18569529100205,58.27741819000221,58.65664783900138,1,0.46820681099779904,,,,,,,,,,,,,,,,,,S1,2023-11-06_14h47.09.923,example_staircase,2023.2.3,None,2023-11-06 14h47.34.341476 +0200,
,,,,40,0.1,1.9905358527674837e-06,,,,,58.66322710600798,,58.656708548005554,58.66322710600798,59.16094801200961,59.65229284700763,59.65229284700763,59.744352460998925,60.090169525996316,1,0.4294190979999257,,,,,,,,,,,,,,,,,,S1,2023-11-06_14h47.09.923,example_staircase,2023.2.3,None,2023-11-06 14h47.34.341476 +0200,
,,,,41,0.1,1.5811388300841875e-06,,,,,60.09668974300439,,60.09023590100696,60.09668974300439,60.594347086997004,61.086098619998666,61.086098619998666,61.177910876998794,61.523945092005306,1,0.436978851997992,,,,,,,,,,,,,,,,,,S1,2023-11-06_14h47.09.923,example_staircase,2023.2.3,None,2023-11-06 14h47.34.341476 +0200,
,,,,42,0.1,1.5811388300841875e-06,,,,,61.53032903499843,,61.524007931002416,61.53032903499843,62.027730182002415,62.518924878997495,62.518924878997495,62.611547050997615,62.89536584400048,1,0.3749071430065669,,,,,,,,,,,,,,,,,,S1,2023-11-06_14h47.09.923,example_staircase,2023.2.3,None,2023-11-06 14h47.34.341476 +0200,
,,,,43,0.1,1.2559432157547882e-06,,,,,62.9065491950023,,62.89543752100144,62.9065491950023,63.395404106006026,63.891321746996255,63.891321746996255,63.97916084600729,64.3082520760072,1,0.4093290780001553,,,,,,,,,,,,,,,,,,S1,2023-11-06_14h47.09.923,example_staircase,2023.2.3,None,2023-11-06 14h47.34.341476 +0200,
,,,,44,0.1,1.2559432157547882e-06,,,,,64.31478787200467,,64.30832487200678,64.31478787200467,64.81230544899881,65.30383534300199,65.30383534300199,65.39581407600781,65.6752883040026,1,0.3706242089974694,,,,,,,,,,,,,,,,,,S1,2023-11-06_14h47.09.923,example_staircase,2023.2.3,None,2023-11-06 14h47.34.341476 +0200,
,,,,45,0.1,9.976311574844383e-07,,,,,65.68165393700474,,65.67535241899895,65.68165393700474,66.1789932410029,66.67088037800568,66.67088037800568,66.76278934800939,67.09210928999528,1,0.420417407003697,,,,,,,,,,,,,,,,,,S1,2023-11-06_14h47.09.923,example_staircase,2023.2.3,None,2023-11-06 14h47.34.341476 +0200,
,,,,46,0.1,9.976311574844383e-07,,,,,67.09858152300876,,67.09217277300195,67.09858152300876,67.59606572700432,68.08820169400133,68.08820169400133,68.1802720429987,68.50972842599731,0,0.40837220700632315,,,,,,,,,,,,,,,,,,S1,2023-11-06_14h47.09.923,example_staircase,2023.2.3,None,2023-11-06 14h47.34.341476 +0200,
,,,,47,0.1,1.2559432157547882e-06,,,,,68.51633904100163,,68.50979529100005,68.51633904100163,69.01381622599729,69.5052556849987,69.5052556849987,69.59705968199705,69.94840251399728,1,0.4419972269970458,,,,,,,,,,,,,,,,,,S1,2023-11-06_14h47.09.923,example_staircase,2023.2.3,None,2023-11-06 14h47.34.341476 +0200,
,,,,48,0.1,1.2559432157547882e-06,,,,,69.95900598700973,,69.94848840100167,69.95900598700973,70.44709026900819,70.95555910600524,70.95555910600524,71.04735256799904,71.31490172400663,0,0.3542550790007226,,,,,,,,,,,,,,,,,,S1,2023-11-06_14h47.09.923,example_staircase,2023.2.3,None,2023-11-06 14h47.34.341476 +0200,
,,,,49,0.1,1.5811388300841875e-06,,,,,71.32576051600336,,71.31498704499973,71.32576051600336,71.81391054700362,72.30996590100403,72.30996590100403,72.39779063900642,72.7601932240068,1,0.4494842999993125,,,,,,,,,,,,,,,,,,S1,2023-11-06_14h47.09.923,example_staircase,2023.2.3,None,2023-11-06 14h47.34.341476 +0200,
,,,,,,,,,,,,,,,,,,,,,,72.7602461350034,72.76666047000617,72.76666047000617,75.47773230800522,space,2.704301090008812,None,,,,,,,,,,,S1,2023-11-06_14h47.09.923,example_staircase,2023.2.3,None,2023-11-06 14h47.34.341476 +0200,
left,-0.3,long,0.2,,,,0,0,0,0,75.51476239699696,,,,,,,,,,,,,,,,,,75.5070334750053,75.51476239699696,76.01053171000967,76.47419435299526,76.47419435299526,76.66532573099539,76.94491532900429,left,0.4698994729988044,None,S1,2023-11-06_14h47.09.923,example_staircase,2023.2.3,None,2023-11-06 14h47.34.341476 +0200,
left,-0.3,short,0.1,,,,0,1,1,1,76.9520350189996,,,,,,,,,,,,,,,,,,76.94583474000683,76.9520350189996,77.44871783599956,77.94447223600582,77.94447223600582,78.0322508149984,78.72887936700135,right,0.7781611340033123,None,S1,2023-11-06_14h47.09.923,example_staircase,2023.2.3,None,2023-11-06 14h47.34.341476 +0200,
left,-0.3,short,0.1,,,,0,2,2,1,78.73590941099974,,,,,,,,,,,,,,,,,,78.7295752630016,78.73590941099974,79.23306608700659,79.72437276200799,79.72437276200799,79.81647230700764,80.16894669100293,left,0.4377111930079991,None,S1,2023-11-06_14h47.09.923,example_staircase,2023.2.3,None,2023-11-06 14h47.34.341476 +0200,
right,0.3,long,0.2,,,,0,3,3,2,80.17844953399617,,,,,,,,,,,,,,,,,,80.16983695300587,80.17844953399617,80.66658709800686,81.17443851400458,81.17443851400458,81.36687145399628,81.62913954100804,right,0.4506707970140269,None,S1,2023-11-06_14h47.09.923,example_staircase,2023.2.3,None,2023-11-06 14h47.34.341476 +0200,
left,-0.3,short,0.1,,,,1,0,4,1,81.6361808530055,,,,,,,,,,,,,,,,,,81.62984399900597,81.6361808530055,82.1332686990063,82.62475779899978,82.62475779899978,82.71691170999839,83.080120137005,left,0.45121190999634564,None,S1,2023-11-06_14h47.09.923,example_staircase,2023.2.3,None,2023-11-06 14h47.34.341476 +0200,
right,0.3,short,0.1,,,,1,1,5,3,83.08704047500214,,,,,,,,,,,,,,,,,,83.08079637300398,83.08704047500214,83.58458948599582,84.07559211400803,84.07559211400803,84.16778714899556,84.55168034799863,right,0.4735297110019019,None,S1,2023-11-06_14h47.09.923,example_staircase,2023.2.3,None,2023-11-06 14h47.34.341476 +0200,
right,0.3,long,0.2,,,,1,2,6,2,84.56305414700182,,,,,,,,,,,,,,,,,,84.55233340100676,84.56305414700182,85.05103885200515,85.54816904000472,85.54816904000472,85.74656540100113,86.02004241700342,right,0.465396151994355,None,S1,2023-11-06_14h47.09.923,example_staircase,2023.2.3,None,2023-11-06 14h47.34.341476 +0200,
left,-0.3,long,0.2,,,,1,3,7,0,86.02995094300422,,,,,,,,,,,,,,,,,,86.02055416900839,86.02995094300422,86.51809770699765,87.0259225560003,87.0259225560003,87.21837307899841,87.51399761100765,left,0.48209128800954204,None,S1,2023-11-06_14h47.09.923,example_staircase,2023.2.3,None,2023-11-06 14h47.34.341476 +0200,
right,0.3,short,0.1,,,,2,0,8,3,87.52102200500667,,,,,,,,,,,,,,,,,,87.51467296399642,87.52102200500667,88.01812948699808,88.51415454100061,88.51415454100061,88.60247480600083,88.90312087300117,right,0.3882750519987894,None,S1,2023-11-06_14h47.09.923,example_staircase,2023.2.3,None,2023-11-06 14h47.34.341476 +0200,
left,-0.3,long,0.2,,,,2,1,9,0,88.91444872799912,,,,,,,,,,,,,,,,,,88.903635759998,88.91444872799912,89.40238478399988,89.89965525300067,89.89965525300067,90.09788494600798,90.38176152399683,left,0.47782112400454935,None,S1,2023-11-06_14h47.09.923,example_staircase,2023.2.3,None,2023-11-06 14h47.34.341476 +0200,
right,0.3,short,0.1,,,,2,2,10,3,90.38869526500639,,,,,,,,,,,,,,,,,,90.3824145700055,90.38869526500639,90.88593813500484,91.37787801399827,91.37787801399827,91.46977318100107,91.88197870399745,right,0.4948585380043369,None,S1,2023-11-06_14h47.09.923,example_staircase,2023.2.3,None,2023-11-06 14h47.34.341476 +0200,
right,0.3,short,0.1,,,,2,3,11,3,91.88906160600891,,,,,,,,,,,,,,,,,,91.88268827099819,91.88906160600891,92.38641903799726,92.88300875399727,92.88300875399727,92.98166191700147,93.40422800900706,right,0.5193123360077152,None,S1,2023-11-06_14h47.09.923,example_staircase,2023.2.3,None,2023-11-06 14h47.34.341476 +0200,
right,0.3,short,0.1,,,,3,0,12,3,93.41575659300725,,,,,,,,,,,,,,,,,,93.40487114799907,93.41575659300725,93.90388079600234,94.40106923200074,94.40106923200074,94.49908385200251,94.99978186099906,right,0.5875963690050412,None,S1,2023-11-06_14h47.09.923,example_staircase,2023.2.3,None,2023-11-06 14h47.34.341476 +0200,
left,-0.3,long,0.2,,,,3,1,13,0,95.00681345000339,,,,,,,,,,,,,,,,,,95.00043800100684,95.00681345000339,95.50395830400521,95.99523963400861,95.99523963400861,96.18773405400862,96.45015957900614,left,0.4452270539914025,None,S1,2023-11-06_14h47.09.923,example_staircase,2023.2.3,None,2023-11-06 14h47.34.341476 +0200,
left,-0.3,long,0.2,,,,3,2,14,0,96.45731341899955,,,,,,,,,,,,,,,,,,96.4507906660001,96.45731341899955,96.9542064039997,97.45093673400697,97.45093673400697,97.6495739940001,97.93821269800537,left,0.486175442012609,None,S1,2023-11-06_14h47.09.923,example_staircase,2023.2.3,None,2023-11-06 14h47.34.341476 +0200,
right,0.3,long,0.2,,,,3,3,15,2,97.9495541750075,,,,,,,,,,,,,,,,,,97.93885256700742,97.9495541750075,98.43835504500021,98.93432698000106,98.93432698000106,99.12222693899821,99.40608458299539,right,0.46659596399695147,None,S1,2023-11-06_14h47.09.923,example_staircase,2023.2.3,None,2023-11-06 14h47.34.341476 +0200,
left,-0.3,long,0.2,,,,4,0,16,0,99.4172192660044,,,,,,,,,,,,,,,,,,99.40692016300454,99.4172192660044,99.90538307999668,100.41334227500192,100.41334227500192,100.60545960700256,100.91789456699917,left,0.5035965679999208,None,S1,2023-11-06_14h47.09.923,example_staircase,2023.2.3,None,2023-11-06 14h47.34.341476 +0200,
right,0.3,short,0.1,,,,4,1,17,3,100.92475205600203,,,,,,,,,,,,,,,,,,100.91853777700453,100.92475205600203,101.42222192100598,101.91353680800239,101.91353680800239,102.00581279900507,102.4182072100084,right,0.50085671999841,None,S1,2023-11-06_14h47.09.923,example_staircase,2023.2.3,None,2023-11-06 14h47.34.341476 +0200,
right,0.3,long,0.2,,,,4,2,18,2,102.4250997830095,,,,,,,,,,,,,,,,,,102.41885002300842,102.4250997830095,102.92212893400574,103.41439568500209,103.41439568500209,103.60673715399753,103.86907012300799,right,0.45081623099395074,None,S1,2023-11-06_14h47.09.923,example_staircase,2023.2.3,None,2023-11-06 14h47.34.341476 +0200,
right,0.3,short,0.1,,,,4,3,19,3,103.87603457200748,,,,,,,,,,,,,,,,,,103.86978605699551,103.87603457200748,104.37342668800557,104.86443124200741,104.86443124200741,104.95679427000869,105.3359288250067,right,0.4631717629963532,None,S1,2023-11-06_14h47.09.923,example_staircase,2023.2.3,None,2023-11-06 14h47.34.341476 +0200,
left,-0.3,short,0.1,,,,5,0,20,1,105.34308070399857,,,,,,,,,,,,,,,,,,105.3366409720038,105.34308070399857,105.84018780500628,106.3314294340089,106.3314294340089,106.42361552499642,106.79105922600138,left,0.4577371769992169,None,S1,2023-11-06_14h47.09.923,example_staircase,2023.2.3,None,2023-11-06 14h47.34.341476 +0200,
right,0.3,short,0.1,,,,5,1,21,3,106.80220258199552,,,,,,,,,,,,,,,,,,106.79169808799634,106.80220258199552,107.290229197999,107.79843764100224,107.79843764100224,107.89036745500925,108.27567366400035,right,0.47614153499307577,None,S1,2023-11-06_14h47.09.923,example_staircase,2023.2.3,None,2023-11-06 14h47.34.341476 +0200,
left,-0.3,long,0.2,,,,5,2,22,0,108.28643552699941,,,,,,,,,,,,,,,,,,108.27632072599954,108.28643552699941,108.77445273700869,109.282532696001,109.282532696001,109.47495184700529,109.72057255799882,left,0.4323034069966525,None,S1,2023-11-06_14h47.09.923,example_staircase,2023.2.3,None,2023-11-06 14h47.34.341476 +0200,
left,-0.3,short,0.1,,,,5,3,23,1,109.7275747990061,,,,,,,,,,,,,,,,,,109.72122521800338,109.7275747990061,110.2248391280009,110.71610947600857,110.71610947600857,110.80833275800978,112.63762025500182,right,1.9123578629951226,None,S1,2023-11-06_14h47.09.923,example_staircase,2023.2.3,None,2023-11-06 14h47.34.341476 +0200,
right,0.3,long,0.2,,,,6,0,24,2,112.64460326000699,,,,,,,,,,,,,,,,,,112.63827516199672,112.64460326000699,113.14254127400636,113.6345115419972,113.6345115419972,113.82650701899547,114.12184826000885,right,0.4791324340039864,None,S1,2023-11-06_14h47.09.923,example_staircase,2023.2.3,None,2023-11-06 14h47.34.341476 +0200,
left,-0.3,short,0.1,,,,6,1,25,1,114.12884730400401,,,,,,,,,,,,,,,,,,114.12251477999962,114.12884730400401,114.62597214800189,115.11791916700895,115.11791916700895,115.20959770299669,115.6104489910067,left,0.49080189599771984,None,S1,2023-11-06_14h47.09.923,example_staircase,2023.2.3,None,2023-11-06 14h47.34.341476 +0200,
left,-0.3,short,0.1,,,,6,2,26,1,115.62153444399883,,,,,,,,,,,,,,,,,,115.61108833100297,115.62153444399883,116.10957147400768,116.61787252800423,116.61787252800423,116.71004590700613,117.13887588899524,left,0.5101008029887453,None,S1,2023-11-06_14h47.09.923,example_staircase,2023.2.3,None,2023-11-06 14h47.34.341476 +0200,
right,0.3,long,0.2,,,,6,3,27,2,117.1458598140016,,,,,,,,,,,,,,,,,,117.13953395599674,117.1458598140016,117.64311821199954,118.13506505700934,118.13506505700934,118.32763102299941,118.58991871000035,right,0.44379356400168035,None,S1,2023-11-06_14h47.09.923,example_staircase,2023.2.3,None,2023-11-06 14h47.34.341476 +0200,
left,-0.3,long,0.2,,,,7,0,28,0,118.59699207999802,,,,,,,,,,,,,,,,,,118.59063703600259,118.59699207999802,119.09410323500924,119.58561626600567,119.58561626600567,119.77760940299777,120.07339730599779,left,0.47872579300019424,None,S1,2023-11-06_14h47.09.923,example_staircase,2023.2.3,None,2023-11-06 14h47.34.341476 +0200,
right,0.3,short,0.1,,,,7,1,29,3,120.08038528700126,,,,,,,,,,,,,,,,,,120.07410940900445,120.08038528700126,120.57759159700072,121.06891175000055,121.06891175000055,121.1611264719977,121.62867160400492,right,0.5589770329970634,None,S1,2023-11-06_14h47.09.923,example_staircase,2023.2.3,None,2023-11-06 14h47.34.341476 +0200,
left,-0.3,short,0.1,,,,7,2,30,1,121.63968028999807,,,,,,,,,,,,,,,,,,121.62917493299756,121.63968028999807,122.12779215000046,122.6357701500092,122.6357701500092,122.72798909399717,123.06196401100897,right,0.4219414689869154,None,S1,2023-11-06_14h47.09.923,example_staircase,2023.2.3,None,2023-11-06 14h47.34.341476 +0200,
left,-0.3,short,0.1,,,,7,3,31,1,123.07398519699927,,,,,,,,,,,,,,,,,,123.06260348799697,123.07398519699927,123.56196721299784,124.05796347399883,124.05796347399883,124.145612221997,124.69140238300315,left,0.6293673059990397,None,S1,2023-11-06_14h47.09.923,example_staircase,2023.2.3,None,2023-11-06 14h47.34.341476 +0200,
left,-0.3,short,0.1,,,,8,0,32,1,124.69837302200904,,,,,,,,,,,,,,,,,,124.69205355399754,124.69837302200904,125.19570713100256,125.68744354799856,125.68744354799856,125.77913515700493,126.3749770459981,right,0.6759034550050274,None,S1,2023-11-06_14h47.09.923,example_staircase,2023.2.3,None,2023-11-06 14h47.34.341476 +0200,
left,-0.3,long,0.2,,,,8,1,33,0,126.38200123999559,,,,,,,,,,,,,,,,,,126.37570979300654,126.38200123999559,126.87928824599658,127.37070711400884,127.37070711400884,127.56276448200515,127.92990178200125,left,0.5564155229949392,None,S1,2023-11-06_14h47.09.923,example_staircase,2023.2.3,None,2023-11-06 14h47.34.341476 +0200,
right,0.3,long,0.2,,,,8,2,34,2,127.94114425900625,,,,,,,,,,,,,,,,,,127.93040772499808,127.94114425900625,128.43021512600535,128.927001656004,128.927001656004,129.1255037820083,129.47603808699932,right,0.5411513029976049,None,S1,2023-11-06_14h47.09.923,example_staircase,2023.2.3,None,2023-11-06 14h47.34.341476 +0200,
right,0.3,long,0.2,,,,8,3,35,2,129.48304895599722,,,,,,,,,,,,,,,,,,129.47667607900803,129.48304895599722,129.98032081300335,130.47216781300085,130.47216781300085,130.66381238400936,131.00967013899935,right,0.5267166539997561,None,S1,2023-11-06_14h47.09.923,example_staircase,2023.2.3,None,2023-11-06 14h47.34.341476 +0200,
right,0.3,short,0.1,,,,9,0,36,3,131.01668196800165,,,,,,,,,,,,,,,,,,131.0103232560068,131.01668196800165,131.5136804250069,132.00509419300943,132.00509419300943,132.09769914600474,132.5765148710052,right,0.5684061920037493,None,S1,2023-11-06_14h47.09.923,example_staircase,2023.2.3,None,2023-11-06 14h47.34.341476 +0200,
right,0.3,short,0.1,,,,9,1,37,3,132.58339069000795,,,,,,,,,,,,,,,,,,132.57715257399832,132.58339069000795,133.08139906100405,133.57348739600275,133.57348739600275,133.66497370200523,134.2324863630056,right,0.6545600089884829,None,S1,2023-11-06_14h47.09.923,example_staircase,2023.2.3,None,2023-11-06 14h47.34.341476 +0200,
left,-0.3,short,0.1,,,,9,2,38,1,134.24349320800684,,,,,,,,,,,,,,,,,,134.23335751100967,134.24349320800684,134.73171449299844,135.23949792400526,135.23949792400526,135.3322908209957,135.74446303200966,left,0.4953255389991682,None,S1,2023-11-06_14h47.09.923,example_staircase,2023.2.3,None,2023-11-06 14h47.34.341476 +0200,
left,-0.3,short,0.1,,,,9,3,39,1,135.75154000399925,,,,,,,,,,,,,,,,,,135.7451152499998,135.75154000399925,136.2487407180015,136.74419782300538,136.74419782300538,136.831963618999,137.3445334709977,right,0.5994522289984161,None,S1,2023-11-06_14h47.09.923,example_staircase,2023.2.3,None,2023-11-06 14h47.34.341476 +0200,
right,0.3,short,0.1,,,,10,0,40,3,137.35138899099547,,,,,,,,,,,,,,,,,,137.34517578400846,137.35138899099547,137.8487754640082,138.34131805799552,138.34131805799552,138.4332122150081,140.47898400900885,left,2.128891972010024,None,S1,2023-11-06_14h47.09.923,example_staircase,2023.2.3,None,2023-11-06 14h47.34.341476 +0200,
left,-0.3,short,0.1,,,,10,1,41,1,140.48606492200634,,,,,,,,,,,,,,,,,,140.4796731009992,140.48606492200634,140.98311760800425,141.4788977279968,141.4788977279968,141.5667143210012,142.98435079300543,right,1.501038143003825,None,S1,2023-11-06_14h47.09.923,example_staircase,2023.2.3,None,2023-11-06 14h47.34.341476 +0200,
left,-0.3,short,0.1,,,,10,2,42,1,142.99530252200202,,,,,,,,,,,,,,,,,,142.98508383100852,142.99530252200202,143.4845576880034,143.98013783199713,143.98013783199713,144.06783387300675,144.51342603699595,left,0.5292960879887687,None,S1,2023-11-06_14h47.09.923,example_staircase,2023.2.3,None,2023-11-06 14h47.34.341476 +0200,
right,0.3,short,0.1,,,,10,3,43,3,144.52009114500834,,,,,,,,,,,,,,,,,,144.51398459699703,144.52009114500834,145.0178868140065,145.50891369099554,145.50891369099554,145.60123569500865,146.03044806800608,left,0.5188339979940793,None,S1,2023-11-06_14h47.09.923,example_staircase,2023.2.3,None,2023-11-06 14h47.34.341476 +0200,
right,0.3,short,0.1,,,,11,0,44,3,146.0374415510014,,,,,,,,,,,,,,,,,,146.03112383000553,146.0374415510014,146.5346323709964,147.0259102830023,147.0259102830023,147.1181288509979,147.5305765719968,right,0.4982450789975701,None,S1,2023-11-06_14h47.09.923,example_staircase,2023.2.3,None,2023-11-06 14h47.34.341476 +0200,
left,-0.3,long,0.2,,,,11,1,45,0,147.5375446990074,,,,,,,,,,,,,,,,,,147.5312674290035,147.5375446990074,148.03494482500537,148.52685043199745,148.52685043199745,148.71924336800294,149.13185530800547,left,0.5948045919940341,None,S1,2023-11-06_14h47.09.923,example_staircase,2023.2.3,None,2023-11-06 14h47.34.341476 +0200,
left,-0.3,long,0.2,,,,11,2,46,0,149.13896855400526,,,,,,,,,,,,,,,,,,149.13249097499647,149.13896855400526,149.63582168100402,150.13156387100753,150.13156387100753,150.3196553040034,150.64831163099734,left,0.5089393719972577,None,S1,2023-11-06_14h47.09.923,example_staircase,2023.2.3,None,2023-11-06 14h47.34.341476 +0200,
right,0.3,short,0.1,,,,11,3,47,3,150.65531169700262,,,,,,,,,,,,,,,,,,150.64900251300423,150.65531169700262,151.15286356699653,151.64402107399656,151.64402107399656,151.7360641740088,152.0987300620036,right,0.44710972299799323,None,S1,2023-11-06_14h47.09.923,example_staircase,2023.2.3,None,2023-11-06 14h47.34.341476 +0200,
right,0.3,short,0.1,,,,12,0,48,3,152.10574843699578,,,,,,,,,,,,,,,,,,152.09937144399737,152.10574843699578,152.602731624007,153.09538134100148,153.09538134100148,153.18726803500613,153.699837164997,right,0.593554690000019,None,S1,2023-11-06_14h47.09.923,example_staircase,2023.2.3,None,2023-11-06 14h47.34.341476 +0200,
right,0.3,long,0.2,,,,12,1,49,2,153.7069214570074,,,,,,,,,,,,,,,,,,153.70047680199787,153.7069214570074,154.20362614000624,154.70098518200393,154.70098518200393,154.89920957600407,155.2331799960084,right,0.52983938199759,None,S1,2023-11-06_14h47.09.923,example_staircase,2023.2.3,None,2023-11-06 14h47.34.341476 +0200,
left,-0.3,long,0.2,,,,12,2,50,0,155.2400739940058,,,,,,,,,,,,,,,,,,155.2338417169958,155.2400739940058,155.737204132005,156.23308798200742,156.23308798200742,156.42092247000255,156.80563736399927,left,0.5715800449979724,None,S1,2023-11-06_14h47.09.923,example_staircase,2023.2.3,None,2023-11-06 14h47.34.341476 +0200,
left,-0.3,long,0.2,,,,12,3,51,0,156.815959132,,,,,,,,,,,,,,,,,,156.8062738209992,156.815959132,157.30430018799962,157.81202915000904,157.81202915000904,158.0042760159995,158.35075707400392,left,0.5339447599981213,None,S1,2023-11-06_14h47.09.923,example_staircase,2023.2.3,None,2023-11-06 14h47.34.341476 +0200,
right,0.3,short,0.1,,,,13,0,52,3,158.35774881299585,,,,,,,,,,,,,,,,,,158.35146016199724,158.35774881299585,158.8550773820025,159.34666085700155,159.34666085700155,159.43850398600625,160.02346349399886,right,0.6757783799985191,None,S1,2023-11-06_14h47.09.923,example_staircase,2023.2.3,None,2023-11-06 14h47.34.341476 +0200,
left,-0.3,short,0.1,,,,13,1,53,1,160.03389346699987,,,,,,,,,,,,,,,,,,160.0242150069971,160.03389346699987,160.5221924130019,161.0307456270093,161.0307456270093,161.12247122300323,161.52301264600828,left,0.4878870039974572,None,S1,2023-11-06_14h47.09.923,example_staircase,2023.2.3,None,2023-11-06 14h47.34.341476 +0200,
left,-0.3,long,0.2,,,,13,2,54,0,161.53400665200024,,,,,,,,,,,,,,,,,,161.52371916500852,161.53400665200024,162.02221612499852,162.53024793400255,162.53024793400255,162.7222450160043,163.1069923699979,left,0.5743095479992917,None,S1,2023-11-06_14h47.09.923,example_staircase,2023.2.3,None,2023-11-06 14h47.34.341476 +0200,
left,-0.3,long,0.2,,,,13,3,55,0,163.11834318299952,,,,,,,,,,,,,,,,,,163.10763280800893,163.11834318299952,163.60655612499977,164.1022089580074,164.1022089580074,164.28994559499552,164.65769034600817,left,0.5546730430069147,None,S1,2023-11-06_14h47.09.923,example_staircase,2023.2.3,None,2023-11-06 14h47.34.341476 +0200,
left,-0.3,short,0.1,,,,14,0,56,1,164.66852397900948,,,,,,,,,,,,,,,,,,164.6582644559967,164.66852397900948,165.15662855200935,165.66449767899758,165.66449767899758,165.75695747000282,166.15810958899965,left,0.48980227000720333,None,S1,2023-11-06_14h47.09.923,example_staircase,2023.2.3,None,2023-11-06 14h47.34.341476 +0200,
right,0.3,long,0.2,,,,14,1,57,2,166.1686458089971,,,,,,,,,,,,,,,,,,166.1589850080054,166.1686458089971,166.65705350400822,167.16515607699694,167.16515607699694,167.35699559100613,167.70283324400953,right,0.5292874070000835,None,S1,2023-11-06_14h47.09.923,example_staircase,2023.2.3,None,2023-11-06 14h47.34.341476 +0200,
right,0.3,long,0.2,,,,14,2,58,2,167.71014566499798,,,,,,,,,,,,,,,,,,167.70349721099774,167.71014566499798,168.20795765500225,168.6994520080043,168.6994520080043,168.89150516300288,169.22065767699678,right,0.5139033790037502,None,S1,2023-11-06_14h47.09.923,example_staircase,2023.2.3,None,2023-11-06 14h47.34.341476 +0200,
right,0.3,long,0.2,,,,14,3,59,2,169.22774415300228,,,,,,,,,,,,,,,,,,169.22129756299546,169.22774415300228,169.7245783600083,170.22166106100485,170.22166106100485,170.42003912400105,170.72542449300818,right,0.4994818630075315,None,S1,2023-11-06_14h47.09.923,example_staircase,2023.2.3,None,2023-11-06 14h47.34.341476 +0200,
left,-0.3,long,0.2,,,,15,0,60,0,170.7367351849971,,,,,,,,,,,,,,,,,,170.72604146800586,170.7367351849971,171.22480457500205,171.732905664001,171.732905664001,171.92484525500913,172.34274142500362,left,0.6089593200013041,None,S1,2023-11-06_14h47.09.923,example_staircase,2023.2.3,None,2023-11-06 14h47.34.341476 +0200,
right,0.3,short,0.1,,,,15,1,61,3,172.3534956430085,,,,,,,,,,,,,,,,,,172.34336791699752,172.3534956430085,172.8416706470016,173.3389675619983,173.3389675619983,173.4378492120013,174.01043585500156,right,0.6669998830038821,None,S1,2023-11-06_14h47.09.923,example_staircase,2023.2.3,None,2023-11-06 14h47.34.341476 +0200,
left,-0.3,short,0.1,,,,15,2,62,1,174.02125267400697,,,,,,,,,,,,,,,,,,174.01131364800676,174.02125267400697,174.5091610320087,175.0172119330091,175.0172119330091,175.10990412000683,175.53875803800474,left,0.5186214099958306,None,S1,2023-11-06_14h47.09.923,example_staircase,2023.2.3,None,2023-11-06 14h47.34.341476 +0200,
left,-0.3,short,0.1,,,,15,3,63,1,175.5457024250063,,,,,,,,,,,,,,,,,,175.5394076070079,175.5457024250063,176.04285267200612,176.5385130969953,176.5385130969953,176.62628832100017,177.04393861000426,left,0.5046193299931474,None,S1,2023-11-06_14h47.09.923,example_staircase,2023.2.3,None,2023-11-06 14h47.34.341476 +0200,
right,0.3,long,0.2,,,,16,0,64,2,177.0549445880024,,,,,,,,,,,,,,,,,,177.04458585000248,177.0549445880024,177.5431500160048,178.05104760700488,178.05104760700488,178.24415899800078,178.54484383799718,right,0.48857805199804716,None,S1,2023-11-06_14h47.09.923,example_staircase,2023.2.3,None,2023-11-06 14h47.34.341476 +0200,
left,-0.3,long,0.2,,,,16,1,65,0,178.555910983996,,,,,,,,,,,,,,,,,,178.54570387100102,178.555910983996,179.04406688699964,179.55186051000783,179.55186051000783,179.74431495700264,180.06169543300348,left,0.506296288993326,None,S1,2023-11-06_14h47.09.923,example_staircase,2023.2.3,None,2023-11-06 14h47.34.341476 +0200,
left,-0.3,short,0.1,,,,16,2,66,1,180.0727735959954,,,,,,,,,,,,,,,,,,180.06241477800359,180.0727735959954,180.56079256800876,181.06884049800283,181.06884049800283,181.16118690800795,181.72351815200818,left,0.6538408829947002,None,S1,2023-11-06_14h47.09.923,example_staircase,2023.2.3,None,2023-11-06 14h47.34.341476 +0200,
right,0.3,short,0.1,,,,16,3,67,3,181.7304325580044,,,,,,,,,,,,,,,,,,181.7241529800085,181.7304325580044,182.2277263559954,182.71945030200004,182.71945030200004,182.8113708489982,183.15774886900908,right,0.43180839299748186,None,S1,2023-11-06_14h47.09.923,example_staircase,2023.2.3,None,2023-11-06 14h47.34.341476 +0200,
right,0.3,long,0.2,,,,17,0,68,2,183.16468155800248,,,,,,,,,,,,,,,,,,183.15840953800944,183.16468155800248,183.66196316899732,184.1543893199996,184.1543893199996,184.3456617089978,184.74119451500883,right,0.5836286039993865,None,S1,2023-11-06_14h47.09.923,example_staircase,2023.2.3,None,2023-11-06 14h47.34.341476 +0200,
left,-0.3,long,0.2,,,,17,1,69,0,184.7478023750009,,,,,,,,,,,,,,,,,,184.74170513699937,184.7478023750009,185.24551233899547,185.73727849499846,185.73727849499846,185.92918695299886,186.29618387500523,left,0.5540140299999621,None,S1,2023-11-06_14h47.09.923,example_staircase,2023.2.3,None,2023-11-06 14h47.34.341476 +0200,
left,-0.3,short,0.1,,,,17,2,70,1,186.30756824200216,,,,,,,,,,,,,,,,,,186.29681847599568,186.30756824200216,186.79579706500226,187.29277441500744,187.29277441500744,187.39103775299736,187.95851061400026,right,0.6620140330051072,None,S1,2023-11-06_14h47.09.923,example_staircase,2023.2.3,None,2023-11-06 14h47.34.341476 +0200,
right,0.3,short,0.1,,,,17,3,71,3,187.96533929300494,,,,,,,,,,,,,,,,,,187.959146469002,187.96533929300494,188.45857090000936,188.95462798500375,188.95462798500375,189.04720528000325,191.826378370999,left,2.8598523769906024,None,S1,2023-11-06_14h47.09.923,example_staircase,2023.2.3,None,2023-11-06 14h47.34.341476 +0200,
right,0.3,long,0.2,,,,18,0,72,2,191.83343178400537,,,,,,,,,,,,,,,,,,191.82707018499786,191.83343178400537,192.33064498800377,192.82640088199696,192.82640088199696,193.01446250900335,193.3107525939995,right,0.4835018119920278,None,S1,2023-11-06_14h47.09.923,example_staircase,2023.2.3,None,2023-11-06 14h47.34.341476 +0200,
right,0.3,long,0.2,,,,18,1,73,2,193.31773836299544,,,,,,,,,,,,,,,,,,193.31139409099706,193.31773836299544,193.81472308500088,194.3117305820051,194.3117305820051,194.51014714299527,194.83221889199922,right,0.5172618540091207,None,S1,2023-11-06_14h47.09.923,example_staircase,2023.2.3,None,2023-11-06 14h47.34.341476 +0200,
left,-0.3,long,0.2,,,,18,2,74,0,194.84354633399926,,,,,,,,,,,,,,,,,,194.8327303469996,194.84354633399926,195.33162203800748,195.82754594599828,195.82754594599828,196.01511424200726,196.2943361380021,left,0.4643478979996871,None,S1,2023-11-06_14h47.09.923,example_staircase,2023.2.3,None,2023-11-06 14h47.34.341476 +0200,
right,0.3,long,0.2,,,,18,3,75,2,196.3012708650058,,,,,,,,,,,,,,,,,,196.29501308800536,196.3012708650058,196.79859579799813,197.29508068900032,197.29508068900032,197.4938591030077,197.7611059769988,right,0.4584026820084546,None,S1,2023-11-06_14h47.09.923,example_staircase,2023.2.3,None,2023-11-06 14h47.34.341476 +0200,
right,0.3,long,0.2,,,,19,0,76,2,197.76809764599602,,,,,,,,,,,,,,,,,,197.7617725529999,197.76809764599602,198.26612902300258,198.75740173499798,198.75740173499798,198.9496333499992,199.21703734900802,right,0.45881704399653245,None,S1,2023-11-06_14h47.09.923,example_staircase,2023.2.3,None,2023-11-06 14h47.34.341476 +0200,
left,-0.3,long,0.2,,,,19,1,77,0,199.22814075699716,,,,,,,,,,,,,,,,,,199.2176723730081,199.22814075699716,199.716182381002,200.2250110550085,200.2250110550085,200.41645114100538,200.6292980700091,left,0.3965849009982776,None,S1,2023-11-06_14h47.09.923,example_staircase,2023.2.3,None,2023-11-06 14h47.34.341476 +0200,
right,0.3,long,0.2,,,,19,2,78,2,200.63645751500735,,,,,,,,,,,,,,,,,,200.6299995820009,200.63645751500735,201.13318092000554,201.62895947099605,201.62895947099605,201.81685767200543,202.04567945800954,right,0.41047013699426316,None,S1,2023-11-06_14h47.09.923,example_staircase,2023.2.3,None,2023-11-06 14h47.34.341476 +0200,
right,0.3,long,0.2,,,,19,3,79,2,202.0526226630027,,,,,,,,,,,,,,,,,,202.04636967800616,202.0526226630027,202.54997515599825,203.0411086499953,203.0411086499953,203.23416004699538,203.54703235800844,right,0.4956958729890175,None,S1,2023-11-06_14h47.09.923,example_staircase,2023.2.3,None,2023-11-06 14h47.34.341476 +0200,
