position,xCordMain,durationCondition,durationStim,staircaseLoop.thisTrialN,staircaseLoop.stepSize,staircaseLoop.intensity,trials.thisRepN,trials.thisTrialN,trials.thisN,trials.thisIndex,thisRow.t,notes,staircaseRoutine.started,cross_staircase.started,cross_staircase.stopped,grating_staircase.started,key_resp_staircase.started,grating_staircase.stopped,staircaseRoutine.stopped,staircaseLoop.response,key_resp_staircase.rt,start_main.started,text_start_main.started,key_resp_start_main.started,start_main.stopped,key_resp_start_main.keys,key_resp_start_main.rt,key_resp_start_main.duration,trial.started,cross_main.started,cross_main.stopped,grating.started,key_resp_main.started,grating.stopped,trial.stopped,key_resp_main.keys,key_resp_main.rt,key_resp_main.duration,participant,date,expName,psychopyVersion,frameRate,expStart,
,,,,0,0.8,0.5,,,,,0.03455959100392647,,0.021273488004226238,0.03455959100392647,0.5233257170184515,1.0035034180036746,1.0035034180036746,1.1018874470028095,1.3584975470148493,1,0.33656403300119564,,,,,,,,,,,,,,,,,,S2,2023-11-09_10h18.26.000,example_staircase,2023.2.3,None,2023-11-09 10h18.50.386092 +0200,
,,,,1,0.8,0.07924465962305566,,,,,1.4273466150043532,,1.3585650000022724,1.4273466150043532,1.9240329030144494,2.3652507980004884,2.3652507980004884,2.457490630011307,2.7868189889995847,1,0.4142016469850205,,,,,,,,,,,,,,,,,,S2,2023-11-09_10h18.26.000,example_staircase,2023.2.3,None,2023-11-09 10h18.50.386092 +0200,
,,,,2,0.8,0.012559432157547895,,,,,2.800594294007169,,2.7868963990185875,2.800594294007169,3.2908335120009724,3.782259552011965,3.782259552011965,3.874442544998601,4.20375366799999,1,0.41482779500074685,,,,,,,,,,,,,,,,,,S2,2023-11-09_10h18.26.000,example_staircase,2023.2.3,None,2023-11-09 10h18.50.386092 +0200,
,,,,3,0.8,0.001990535852767485,,,,,4.210362948011607,,4.203838421002729,4.210362948011607,4.707634928025072,5.199606643000152,5.199606643000152,5.291208930022549,5.541860311001074,1,0.33755102299619466,,,,,,,,,,,,,,,,,,S2,2023-11-09_10h18.26.000,example_staircase,2023.2.3,None,2023-11-09 10h18.50.386092 +0200,
,,,,4,0.8,0.0003154786722400964,,,,,5.553168625017861,,5.541927086014766,5.553168625017861,6.041126870026346,6.53783115799888,6.53783115799888,6.626151367003331,6.909939584002132,1,0.3710072060057428,,,,,,,,,,,,,,,,,,S2,2023-11-09_10h18.26.000,example_staircase,2023.2.3,None,2023-11-09 10h18.50.386092 +0200,
,,,,5,0.8,4.9999999999999955e-05,,,,,6.920856932003517,,6.91002349901828,6.920856932003517,7.408956812025281,7.917306632007239,7.917306632007239,8.009110806015087,8.271632602001773,1,0.3536711389897391,,,,,,,,,,,,,,,,,,S2,2023-11-09_10h18.26.000,example_staircase,2023.2.3,None,2023-11-09 10h18.50.386092 +0200,
,,,,6,0.8,7.924465962305559e-06,,,,,8.277864339004736,,8.271688651002478,8.277864339004736,8.775737532007042,9.266949271026533,9.266949271026533,9.359275446011452,9.59334195300471,1,0.32123208401026204,,,,,,,,,,,,,,,,,,S2,2023-11-09_10h18.26.000,example_staircase,2023.2.3,None,2023-11-09 10h18.50.386092 +0200,
,,,,7,0.8,1.2559432157547886e-06,,,,,9.60449742601486,,9.593431897024857,9.60449742601486,10.092605918005574,10.588408505020197,10.588408505020197,10.676488335011527,10.938490582018858,1,0.3473241519823205,,,,,,,,,,,,,,,,,,S2,2023-11-09_10h18.26.000,example_staircase,2023.2.3,None,2023-11-09 10h18.50.386092 +0200,
,,,,8,0.8,1.9905358527674836e-07,,,,,10.944992108008591,,10.938559474016074,10.944992108008591,11.442652556026587,11.934802155010402,11.934802155010402,12.027282954019029,14.778103528020438,1,2.8382406840100884,,,,,,,,,,,,,,,,,,S2,2023-11-09_10h18.26.000,example_staircase,2023.2.3,None,2023-11-09 10h18.50.386092 +0200,
,,,,9,0.8,3.1547867224009615e-08,,,,,14.789101759000914,,14.778193852020195,14.789101759000914,15.277151398011483,15.774365119024878,15.774365119024878,15.872535089001758,16.29007783200359,1,0.5047619199904148,,,,,,,,,,,,,,,,,,S2,2023-11-09_10h18.26.000,example_staircase,2023.2.3,None,2023-11-09 10h18.50.386092 +0200,
,,,,10,0.8,4.999999999999992e-09,,,,,16.296696372010047,,16.290143878024537,16.296696372010047,16.794890126999235,17.28670776000945,17.28670776000945,17.378350863000378,17.845939782011556,1,0.5560532170056831,,,,,,,,,,,,,,,,,,S2,2023-11-09_10h18.26.000,example_staircase,2023.2.3,None,2023-11-09 10h18.50.386092 +0200,
,,,,11,0.8,7.924465962305554e-10,,,,,17.85695738301729,,17.84600759501336,17.85695738301729,18.345012748002773,18.840952858008677,18.840952858008677,18.92863658402348,19.50800239900127,1,0.6554752630181611,,,,,,,,,,,,,,,,,,S2,2023-11-09_10h18.26.000,example_staircase,2023.2.3,None,2023-11-09 10h18.50.386092 +0200,
,,,,12,0.4,1.2559432157547876e-10,,,,,19.514745034015505,,19.508069938019617,19.514745034015505,20.01208296700497,20.503623392025474,20.503623392025474,20.59528011601651,21.129553822014714,0,0.6245193259965163,,,,,,,,,,,,,,,,,,S2,2023-11-09_10h18.26.000,example_staircase,2023.2.3,None,2023-11-09 10h18.50.386092 +0200,
,,,,13,0.4,3.1547867224009604e-10,,,,,21.14070447901031,,21.12962345199776,21.14070447901031,21.629510489001404,22.126700385008007,22.126700385008007,22.225005213025725,22.67556396400323,0,0.5433880719938315,,,,,,,,,,,,,,,,,,S2,2023-11-09_10h18.26.000,example_staircase,2023.2.3,None,2023-11-09 10h18.50.386092 +0200,
,,,,14,0.4,7.924465962305553e-10,,,,,22.682203028001823,,22.67564774400671,22.682203028001823,23.17972853902029,23.67099789000349,23.67099789000349,23.763518564024707,24.247439957020106,1,0.5724868870165665,,,,,,,,,,,,,,,,,,S2,2023-11-09_10h18.26.000,example_staircase,2023.2.3,None,2023-11-09 10h18.50.386092 +0200,
,,,,15,0.4,7.924465962305553e-10,,,,,24.25851444801083,,24.2475048089982,24.25851444801083,24.747044617019128,25.243790828011697,25.243790828011697,25.342043025011662,25.763894214003813,0,0.5188372929987963,,,,,,,,,,,,,,,,,,S2,2023-11-09_10h18.26.000,example_staircase,2023.2.3,None,2023-11-09 10h18.50.386092 +0200,
,,,,16,0.4,1.9905358527674824e-09,,,,,25.775362019019667,,25.763963439007057,25.775362019019667,26.26339096701122,26.761404238000978,26.761404238000978,26.85956487301155,27.49370402400382,1,0.7227802090055775,,,,,,,,,,,,,,,,,,S2,2023-11-09_10h18.26.000,example_staircase,2023.2.3,None,2023-11-09 10h18.50.386092 +0200,
,,,,17,0.4,1.9905358527674824e-09,,,,,27.50028822600143,,27.493803769000806,27.50028822600143,27.99766625399934,28.489203482022276,28.489203482022276,28.581202615023358,29.261017684009857,0,0.7602569849987049,,,,,,,,,,,,,,,,,,S2,2023-11-09_10h18.26.000,example_staircase,2023.2.3,None,2023-11-09 10h18.50.386092 +0200,
,,,,18,0.4,4.99999999999999e-09,,,,,29.267748114012647,,29.261109626007965,29.267748114012647,29.764699882012792,30.260515608009882,30.260515608009882,30.348237784026423,30.84402781102108,0,0.5759229969989974,,,,,,,,,,,,,,,,,,S2,2023-11-09_10h18.26.000,example_staircase,2023.2.3,None,2023-11-09 10h18.50.386092 +0200,
,,,,19,0.4,1.2559432157547876e-08,,,,,30.850569730013376,,30.84410541501711,30.850569730013376,31.348228570015635,31.84006715400028,31.84006715400028,31.932347509020474,32.51171490701381,1,0.6605113170226105,,,,,,,,,,,,,,,,,,S2,2023-11-09_10h18.26.000,example_staircase,2023.2.3,None,2023-11-09 10h18.50.386092 +0200,
,,,,20,0.4,1.2559432157547876e-08,,,,,32.51825494901277,,32.511779173015384,32.51825494901277,33.015825405018404,33.50772537800367,33.50772537800367,33.59933240202372,34.095178017014405,0,0.5798391980060842,,,,,,,,,,,,,,,,,,S2,2023-11-09_10h18.26.000,example_staircase,2023.2.3,None,2023-11-09 10h18.50.386092 +0200,
,,,,21,0.4,3.15478672240096e-08,,,,,34.101818321010796,,34.09524733200669,34.101818321010796,34.5992036620155,35.09077906800667,35.09077906800667,35.182839536020765,36.262054304999765,1,1.16779480499099,,,,,,,,,,,,,,,,,,S2,2023-11-09_10h18.26.000,example_staircase,2023.2.3,None,2023-11-09 10h18.50.386092 +0200,
,,,,22,0.4,3.15478672240096e-08,,,,,36.268650992016774,,36.26213209400885,36.268650992016774,36.762409836024744,37.25890888701542,37.25890888701542,37.35082232701825,37.99637232601526,0,0.7326007639931049,,,,,,,,,,,,,,,,,,S2,2023-11-09_10h18.26.000,example_staircase,2023.2.3,None,2023-11-09 10h18.50.386092 +0200,
,,,,23,0.4,7.924465962305552e-08,,,,,38.00287571802619,,37.996482709015254,38.00287571802619,38.500522030022694,38.99208681000164,38.99208681000164,39.084273036016384,39.579881448007654,1,0.5854217869928107,,,,,,,,,,,,,,,,,,S2,2023-11-09_10h18.26.000,example_staircase,2023.2.3,None,2023-11-09 10h18.50.386092 +0200,
,,,,24,0.4,7.924465962305552e-08,,,,,39.58637319400441,,39.579949567007134,39.58637319400441,40.08405306900386,40.57532471200102,40.57532471200102,40.66780289300368,41.36347515802481,0,0.778375548979966,,,,,,,,,,,,,,,,,,S2,2023-11-09_10h18.26.000,example_staircase,2023.2.3,None,2023-11-09 10h18.50.386092 +0200,
,,,,25,0.4,1.9905358527674825e-07,,,,,41.369994615000905,,41.36355663702125,41.369994615000905,41.86376095900778,42.359736502025044,42.359736502025044,42.451870734017575,42.71468164600083,0,0.3442061170062516,,,,,,,,,,,,,,,,,,S2,2023-11-09_10h18.26.000,example_staircase,2023.2.3,None,2023-11-09 10h18.50.386092 +0200,
,,,,26,0.4,4.99999999999999e-07,,,,,42.721253443014575,,42.71475224601454,42.721253443014575,43.218548458011355,43.71047472700593,43.71047472700593,43.80207258401788,44.348117530025775,0,0.6251787559885997,,,,,,,,,,,,,,,,,,S2,2023-11-09_10h18.26.000,example_staircase,2023.2.3,None,2023-11-09 10h18.50.386092 +0200,
,,,,27,0.4,1.2559432157547875e-06,,,,,44.35477330299909,,44.34820783699979,44.35477330299909,44.85216400702484,45.34367302901228,45.34367302901228,45.43571322702337,45.83154188800836,1,0.4764849769999273,,,,,,,,,,,,,,,,,,S2,2023-11-09_10h18.26.000,example_staircase,2023.2.3,None,2023-11-09 10h18.50.386092 +0200,
,,,,28,0.2,1.2559432157547875e-06,,,,,45.83807904701098,,45.831614380003884,45.83807904701098,46.335553638025885,46.828201054013334,46.828201054013334,46.92023588900338,47.299080902012065,1,0.46597787097562104,,,,,,,,,,,,,,,,,,S2,2023-11-09_10h18.26.000,example_staircase,2023.2.3,None,2023-11-09 10h18.50.386092 +0200,
,,,,29,0.2,7.924465962305551e-07,,,,,47.30559380800696,,47.29914941699826,47.30559380800696,47.80324175700662,48.29444647600758,48.29444647600758,48.3867685990117,48.76604957302334,1,0.4624268769985065,,,,,,,,,,,,,,,,,,S2,2023-11-09_10h18.26.000,example_staircase,2023.2.3,None,2023-11-09 10h18.50.386092 +0200,
,,,,30,0.2,7.924465962305551e-07,,,,,48.77262288201018,,48.7661161890137,48.77262288201018,49.270312527019996,49.76197852601763,49.76197852601763,49.853501776000485,50.19930162400124,1,0.4342640009999741,,,,,,,,,,,,,,,,,,S2,2023-11-09_10h18.26.000,example_staircase,2023.2.3,None,2023-11-09 10h18.50.386092 +0200,
,,,,31,0.2,4.999999999999989e-07,,,,,50.20549805901828,,50.1993610120262,50.20549805901828,50.70349987101508,51.194962466019206,51.194962466019206,51.287184403016,51.683684407005785,1,0.48602783697424456,,,,,,,,,,,,,,,,,,S2,2023-11-09_10h18.26.000,example_staircase,2023.2.3,None,2023-11-09 10h18.50.386092 +0200,
,,,,32,0.2,4.999999999999989e-07,,,,,51.690282173018204,,51.6837575280224,51.690282173018204,52.187891123001464,52.67974914700608,52.67974914700608,52.771508101024665,53.05057249701349,1,0.36298165400512516,,,,,,,,,,,,,,,,,,S2,2023-11-09_10h18.26.000,example_staircase,2023.2.3,None,2023-11-09 10h18.50.386092 +0200,
,,,,33,0.2,3.154786722400959e-07,,,,,53.05717840601574,,53.05065053500584,53.05717840601574,53.5550824390084,54.04610300101922,54.04610300101922,54.13869183300994,54.43918121702154,1,0.39230332599254325,,,,,,,,,,,,,,,,,,S2,2023-11-09_10h18.26.000,example_staircase,2023.2.3,None,2023-11-09 10h18.50.386092 +0200,
,,,,34,0.2,3.154786722400959e-07,,,,,54.45018484501634,,54.43924547600909,54.45018484501634,54.9381440319994,55.43422089100932,55.43422089100932,55.52165632302058,55.78422983101336,1,0.3421439130033832,,,,,,,,,,,,,,,,,,S2,2023-11-09_10h18.26.000,example_staircase,2023.2.3,None,2023-11-09 10h18.50.386092 +0200,
,,,,35,0.1,1.9905358527674814e-07,,,,,55.79081256000791,,55.78430108001339,55.79081256000791,56.28835237000021,56.78097383500426,56.78097383500426,56.87269770502462,57.20670384101686,0,0.4236188019858673,,,,,,,,,,,,,,,,,,S2,2023-11-09_10h18.26.000,example_staircase,2023.2.3,None,2023-11-09 10h18.50.386092 +0200,
,,,,36,0.1,2.5059361681363556e-07,,,,,57.21788124702289,,57.206774609017884,57.21788124702289,57.705877226020675,58.20339631501702,58.20339631501702,58.30142948002322,58.71865384301054,0,0.5087043890089262,,,,,,,,,,,,,,,,,,S2,2023-11-09_10h18.26.000,example_staircase,2023.2.3,None,2023-11-09 10h18.50.386092 +0200,
,,,,37,0.1,3.154786722400959e-07,,,,,58.725225376023445,,58.718722696008626,58.725225376023445,59.22293965201243,59.714093274000334,59.714093274000334,59.806426495022606,60.06885371101089,0,0.34835261601256207,,,,,,,,,,,,,,,,,,S2,2023-11-09_10h18.26.000,example_staircase,2023.2.3,None,2023-11-09 10h18.50.386092 +0200,
,,,,38,0.1,3.971641173621399e-07,,,,,60.075479658000404,,60.068922003003536,60.075479658000404,60.57296890101861,61.06418271601433,61.06418271601433,61.15645983102149,61.641522601014,1,0.5728542289871257,,,,,,,,,,,,,,,,,,S2,2023-11-09_10h18.26.000,example_staircase,2023.2.3,None,2023-11-09 10h18.50.386092 +0200,
,,,,39,0.1,3.971641173621399e-07,,,,,61.65259669101215,,61.6415867000178,61.65259669101215,62.14076172100613,62.638252619013656,62.638252619013656,62.736020811018534,63.12012388900621,0,0.4724800609983504,,,,,,,,,,,,,,,,,,S2,2023-11-09_10h18.26.000,example_staircase,2023.2.3,None,2023-11-09 10h18.50.386092 +0200,
,,,,40,0.1,4.999999999999989e-07,,,,,63.12660832301481,,63.120212197012734,63.12660832301481,63.624047924007755,64.11597974400502,64.11597974400502,64.20774299500044,64.78693323300104,0,0.6594071239815094,,,,,,,,,,,,,,,,,,S2,2023-11-09_10h18.26.000,example_staircase,2023.2.3,None,2023-11-09 10h18.50.386092 +0200,
,,,,41,0.1,6.294627058970823e-07,,,,,64.79358353902353,,64.78702320100274,64.79358353902353,65.29086945200106,65.78233888701652,65.78233888701652,65.87480042802054,66.37554296600865,1,0.5912299070041627,,,,,,,,,,,,,,,,,,S2,2023-11-09_10h18.26.000,example_staircase,2023.2.3,None,2023-11-09 10h18.50.386092 +0200,
,,,,42,0.1,6.294627058970823e-07,,,,,66.38650029202108,,66.37560736801242,66.38650029202108,66.87547445800737,67.37118385301437,67.37118385301437,67.45896327099763,68.27647479402367,1,0.9033186119922902,,,,,,,,,,,,,,,,,,S2,2023-11-09_10h18.26.000,example_staircase,2023.2.3,None,2023-11-09 10h18.50.386092 +0200,
,,,,43,0.1,4.999999999999989e-07,,,,,68.28747004500474,,68.27654468800756,68.28747004500474,68.77554999201675,69.2725383650104,69.2725383650104,69.37112018000335,69.85492843601969,0,0.5774446959840134,,,,,,,,,,,,,,,,,,S2,2023-11-09_10h18.26.000,example_staircase,2023.2.3,None,2023-11-09 10h18.50.386092 +0200,
,,,,44,0.1,6.294627058970823e-07,,,,,69.86148486702587,,69.85503869902459,69.86148486702587,70.35901997002657,70.85053842602065,70.85053842602065,70.94247367602657,71.47175263002282,1,0.6199068769928999,,,,,,,,,,,,,,,,,,S2,2023-11-09_10h18.26.000,example_staircase,2023.2.3,None,2023-11-09 10h18.50.386092 +0200,
,,,,45,0.1,6.294627058970823e-07,,,,,71.47812015001546,,71.4718214830209,71.47812015001546,71.97207587701268,72.4685321529978,72.4685321529978,72.5603567979997,73.1394725459977,0,0.665655835007783,,,,,,,,,,,,,,,,,,S2,2023-11-09_10h18.26.000,example_staircase,2023.2.3,None,2023-11-09 10h18.50.386092 +0200,
,,,,46,0.1,7.924465962305551e-07,,,,,73.14601660601329,,73.13955438701669,73.14601660601329,73.64364008200937,74.13492462702561,74.13492462702561,74.22727587501868,74.88982784000109,0,0.7435343880206347,,,,,,,,,,,,,,,,,,S2,2023-11-09_10h18.26.000,example_staircase,2023.2.3,None,2023-11-09 10h18.50.386092 +0200,
,,,,47,0.1,9.976311574844379e-07,,,,,74.89637518601376,,74.88990384500357,74.89637518601376,75.39368949399795,75.88506326102652,75.88506326102652,75.97731184502481,76.47330641100416,1,0.5795017100172117,,,,,,,,,,,,,,,,,,S2,2023-11-09_10h18.26.000,example_staircase,2023.2.3,None,2023-11-09 10h18.50.386092 +0200,
,,,,48,0.1,9.976311574844379e-07,,,,,76.47993578901514,,76.47340988501674,76.47993578901514,76.97346351802116,77.4693944780156,77.4693944780156,77.56167095401906,77.94084233100875,1,0.46809276900603436,,,,,,,,,,,,,,,,,,S2,2023-11-09_10h18.26.000,example_staircase,2023.2.3,None,2023-11-09 10h18.50.386092 +0200,
,,,,49,0.1,7.924465962305551e-07,,,,,77.9474416730227,,77.9409211090242,77.9474416730227,78.44493105600122,78.93621453101514,78.93621453101514,79.02844514601748,79.50756477602408,1,0.5656130049901549,,,,,,,,,,,,,,,,,,S2,2023-11-09_10h18.26.000,example_staircase,2023.2.3,None,2023-11-09 10h18.50.386092 +0200,
,,,,,,,,,,,,,,,,,,,,,,79.50765840400709,79.51429377202294,79.51429377202294,82.79216558602639,space,3.272110353980679,None,,,,,,,,,,,S2,2023-11-09_10h18.26.000,example_staircase,2023.2.3,None,2023-11-09 10h18.50.386092 +0200,
left,-0.3,long,0.2,,,,0,0,0,0,82.84204990201397,,,,,,,,,,,,,,,,,,82.83350020801299,82.84204990201397,83.32962382902042,83.78844788300921,83.78844788300921,83.97999384402647,84.60906139202416,left,0.8084077759995125,None,S2,2023-11-09_10h18.26.000,example_staircase,2023.2.3,None,2023-11-09 10h18.50.386092 +0200,
right,0.3,short,0.1,,,,0,1,1,3,84.61538735800423,,,,,,,,,,,,,,,,,,84.61001617400325,84.61538735800423,85.11309300499852,85.60896404401865,85.60896404401865,85.6966984430037,86.07582464101142,right,0.4624394940037746,None,S2,2023-11-09_10h18.26.000,example_staircase,2023.2.3,None,2023-11-09 10h18.50.386092 +0200,
left,-0.3,long,0.2,,,,0,2,2,0,86.08274571801303,,,,,,,,,,,,,,,,,,86.07652462500846,86.08274571801303,86.58104150602594,87.07266940100817,87.07266940100817,87.26430586600327,87.543512002012,left,0.4620895719854161,None,S2,2023-11-09_10h18.26.000,example_staircase,2023.2.3,None,2023-11-09 10h18.50.386092 +0200,
left,-0.3,long,0.2,,,,0,3,3,0,87.55047141801333,,,,,,,,,,,,,,,,,,87.544213228015,87.55047141801333,88.04776512100943,88.53880538602243,88.53880538602243,88.73117174999788,89.07732188000227,left,0.5376938639965374,None,S2,2023-11-09_10h18.26.000,example_staircase,2023.2.3,None,2023-11-09 10h18.50.386092 +0200,
left,-0.3,long,0.2,,,,1,0,4,0,89.0842140520108,,,,,,,,,,,,,,,,,,89.0779683389992,89.0842140520108,89.5810371300031,90.07690118602477,90.07690118602477,90.26470541700837,90.59386100800475,left,0.5049430420040153,None,S2,2023-11-09_10h18.26.000,example_staircase,2023.2.3,None,2023-11-09 10h18.50.386092 +0200,
left,-0.3,short,0.1,,,,1,1,5,1,90.5996574650053,,,,,,,,,,,,,,,,,,90.59442100601154,90.5996574650053,91.0979398630152,91.5896686220076,91.5896686220076,91.68230543000391,92.1280652830028,right,0.534279057988897,None,S2,2023-11-09_10h18.26.000,example_staircase,2023.2.3,None,2023-11-09 10h18.50.386092 +0200,
left,-0.3,long,0.2,,,,1,2,6,0,92.13493719699909,,,,,,,,,,,,,,,,,,92.12873147602659,92.13493719699909,92.63247051200597,93.1234623780183,93.1234623780183,93.31597547102137,93.63327523201588,left,0.5074185310222674,None,S2,2023-11-09_10h18.26.000,example_staircase,2023.2.3,None,2023-11-09 10h18.50.386092 +0200,
right,0.3,short,0.1,,,,1,3,7,3,93.64440651101177,,,,,,,,,,,,,,,,,,93.63391421100823,93.64440651101177,94.1324638230144,94.63000946200918,94.63000946200918,94.72787886101287,95.14526156202191,right,0.5090293590037618,None,S2,2023-11-09_10h18.26.000,example_staircase,2023.2.3,None,2023-11-09 10h18.50.386092 +0200,
right,0.3,long,0.2,,,,2,0,8,2,95.15222213600646,,,,,,,,,,,,,,,,,,95.14593191500171,95.15222213600646,95.64941384500707,96.14056887300103,96.14056887300103,96.33299114499823,96.56797806100803,right,0.42657667299499735,None,S2,2023-11-09_10h18.26.000,example_staircase,2023.2.3,None,2023-11-09 10h18.50.386092 +0200,
left,-0.3,short,0.1,,,,2,1,9,1,96.57888228501542,,,,,,,,,,,,,,,,,,96.56862621000619,96.57888228501542,97.06734967700322,97.57477322401246,97.57477322401246,97.66740200200002,98.0300144390203,left,0.45445774801191874,None,S2,2023-11-09_10h18.26.000,example_staircase,2023.2.3,None,2023-11-09 10h18.50.386092 +0200,
right,0.3,long,0.2,,,,2,2,10,2,98.03682877100073,,,,,,,,,,,,,,,,,,98.03065399100888,98.03682877100073,98.53397394900094,99.03056540200487,99.03056540200487,99.22929383500014,99.54660002101446,right,0.5055277539941017,None,S2,2023-11-09_10h18.26.000,example_staircase,2023.2.3,None,2023-11-09 10h18.50.386092 +0200,
right,0.3,long,0.2,,,,2,3,11,2,99.55355473401141,,,,,,,,,,,,,,,,,,99.54723076301161,99.55355473401141,100.05052783002611,100.54249875602545,100.54249875602545,100.73423178601661,101.21971195901278,right,0.6705365380039439,None,S2,2023-11-09_10h18.26.000,example_staircase,2023.2.3,None,2023-11-09 10h18.50.386092 +0200,
right,0.3,short,0.1,,,,3,0,12,3,101.22954295901582,,,,,,,,,,,,,,,,,,101.22053554200102,101.22954295901582,101.7182750000211,102.2268103370152,102.2268103370152,102.31859927001642,102.78095343100722,right,0.5504964970168658,None,S2,2023-11-09_10h18.26.000,example_staircase,2023.2.3,None,2023-11-09 10h18.50.386092 +0200,
left,-0.3,long,0.2,,,,3,1,13,0,102.78801070500049,,,,,,,,,,,,,,,,,,102.78158334101317,102.78801070500049,103.28505216501071,103.77627665401087,103.77627665401087,103.96874207901419,104.28126336602145,left,0.49617818000842817,None,S2,2023-11-09_10h18.26.000,example_staircase,2023.2.3,None,2023-11-09 10h18.50.386092 +0200,
left,-0.3,short,0.1,,,,3,2,14,1,104.28838300402276,,,,,,,,,,,,,,,,,,104.2818881800049,104.28838300402276,104.7852511210076,105.27632765000453,105.27632765000453,105.36878907002392,105.78174537300947,right,0.504591304983478,None,S2,2023-11-09_10h18.26.000,example_staircase,2023.2.3,None,2023-11-09 10h18.50.386092 +0200,
right,0.3,long,0.2,,,,3,3,15,2,105.78861151702586,,,,,,,,,,,,,,,,,,105.78237001001253,105.78861151702586,106.28541804500856,106.777633256017,106.777633256017,106.96987150900532,107.33235541702015,left,0.5443954090005718,None,S2,2023-11-09_10h18.26.000,example_staircase,2023.2.3,None,2023-11-09 10h18.50.386092 +0200,
right,0.3,short,0.1,,,,4,0,16,3,107.3393335470173,,,,,,,,,,,,,,,,,,107.33304013501038,107.3393335470173,107.8364123510255,108.32815039201523,108.32815039201523,108.42011424500379,108.75413559400477,right,0.4213839129952248,None,S2,2023-11-09_10h18.26.000,example_staircase,2023.2.3,None,2023-11-09 10h18.50.386092 +0200,
right,0.3,long,0.2,,,,4,1,17,2,108.76531335400068,,,,,,,,,,,,,,,,,,108.7550255820097,108.76531335400068,109.25335087502026,109.76158053401741,109.76158053401741,109.95381350402022,110.2993092520046,right,0.5300058189895935,None,S2,2023-11-09_10h18.26.000,example_staircase,2023.2.3,None,2023-11-09 10h18.50.386092 +0200,
left,-0.3,short,0.1,,,,4,2,18,1,110.30637263102108,,,,,,,,,,,,,,,,,,110.30000353499781,110.30637263102108,110.80362084999797,111.29458272401826,111.29458272401826,111.38708338802098,111.78368256002432,left,0.4828704500105232,None,S2,2023-11-09_10h18.26.000,example_staircase,2023.2.3,None,2023-11-09 10h18.50.386092 +0200,
right,0.3,short,0.1,,,,4,3,19,3,111.7906535010261,,,,,,,,,,,,,,,,,,111.78436582101858,111.7906535010261,112.2877921940235,112.7789306230261,112.7789306230261,112.8714168430015,113.2570420600241,right,0.4713066699914634,None,S2,2023-11-09_10h18.26.000,example_staircase,2023.2.3,None,2023-11-09 10h18.50.386092 +0200,
left,-0.3,short,0.1,,,,5,0,20,1,113.26658462002524,,,,,,,,,,,,,,,,,,113.25788583001122,113.26658462002524,113.75460650102468,114.26254181700642,114.26254181700642,114.35506367200287,114.71729235700332,left,0.450615003996063,None,S2,2023-11-09_10h18.26.000,example_staircase,2023.2.3,None,2023-11-09 10h18.50.386092 +0200,
left,-0.3,long,0.2,,,,5,1,21,0,114.72428259599837,,,,,,,,,,,,,,,,,,114.7179990770237,114.72428259599837,115.22139905500808,115.71256472502137,115.71256472502137,115.90510419601924,116.06774359001429,right,0.3496403089957312,None,S2,2023-11-09_10h18.26.000,example_staircase,2023.2.3,None,2023-11-09 10h18.50.386092 +0200,
right,0.3,short,0.1,,,,5,2,22,3,116.07486194901867,,,,,,,,,,,,,,,,,,116.06836815099814,116.07486194901867,116.57244936100324,117.06406078502187,117.06406078502187,117.15626315400004,117.55173614399973,right,0.4830522259871941,None,S2,2023-11-09_10h18.26.000,example_staircase,2023.2.3,None,2023-11-09 10h18.50.386092 +0200,
right,0.3,long,0.2,,,,5,3,23,2,117.55866254601278,,,,,,,,,,,,,,,,,,117.55239476502175,117.55866254601278,118.05599625801551,118.54780056301388,118.54780056301388,118.73955056301202,119.15713870801846,right,0.6085393999819644,None,S2,2023-11-09_10h18.26.000,example_staircase,2023.2.3,None,2023-11-09 10h18.50.386092 +0200,
right,0.3,long,0.2,,,,6,0,24,2,119.16823185799876,,,,,,,,,,,,,,,,,,119.15776447500684,119.16823185799876,119.65624859702075,120.16405813701567,120.16405813701567,120.35631989900139,120.7188584980031,right,0.5436796960129868,None,S2,2023-11-09_10h18.26.000,example_staircase,2023.2.3,None,2023-11-09 10h18.50.386092 +0200,
right,0.3,short,0.1,,,,6,1,25,3,120.7260156510165,,,,,,,,,,,,,,,,,,120.71951265700045,120.7260156510165,121.22288023101282,121.71492721600225,121.71492721600225,121.80782489600824,122.35942564700963,right,0.6379026800277643,None,S2,2023-11-09_10h18.26.000,example_staircase,2023.2.3,None,2023-11-09 10h18.50.386092 +0200,
right,0.3,long,0.2,,,,6,2,26,2,122.36920127901249,,,,,,,,,,,,,,,,,,122.36018540602527,122.36920127901249,122.85740455600899,123.36558197200065,123.36558197200065,123.55755161002162,123.97509276602068,right,0.6050931460049469,None,S2,2023-11-09_10h18.26.000,example_staircase,2023.2.3,None,2023-11-09 10h18.50.386092 +0200,
left,-0.3,short,0.1,,,,6,3,27,1,123.98618135502329,,,,,,,,,,,,,,,,,,123.97587816600571,123.98618135502329,124.47413378002238,124.98238747700816,124.98238747700816,125.07446592501947,125.67022644402459,left,0.676454692002153,None,S2,2023-11-09_10h18.26.000,example_staircase,2023.2.3,None,2023-11-09 10h18.50.386092 +0200,
right,0.3,short,0.1,,,,7,0,28,3,125.67716527500306,,,,,,,,,,,,,,,,,,125.67085688601946,125.67716527500306,126.17449502501404,126.66769259099965,126.66769259099965,126.75874884100631,127.33765254600439,right,0.6669604530034121,None,S2,2023-11-09_10h18.26.000,example_staircase,2023.2.3,None,2023-11-09 10h18.50.386092 +0200,
right,0.3,short,0.1,,,,7,1,29,3,127.34422462602379,,,,,,,,,,,,,,,,,,127.338178926002,127.34422462602379,127.8421771240246,128.33325738101848,128.33325738101848,128.4255135260173,129.15489241402247,right,0.8125216749904212,None,S2,2023-11-09_10h18.26.000,example_staircase,2023.2.3,None,2023-11-09 10h18.50.386092 +0200,
left,-0.3,long,0.2,,,,7,2,30,0,129.16184005801915,,,,,,,,,,,,,,,,,,129.1555199350114,129.16184005801915,129.65883865201613,130.1555409770226,130.1555409770226,130.35425586800557,130.67656705901027,left,0.5201768150145654,None,S2,2023-11-09_10h18.26.000,example_staircase,2023.2.3,None,2023-11-09 10h18.50.386092 +0200,
left,-0.3,short,0.1,,,,7,3,31,1,130.6876546650019,,,,,,,,,,,,,,,,,,130.67719400502392,130.6876546650019,131.1759674110217,131.6734315470094,131.6734315470094,131.77204677902046,132.5894200730254,right,0.9036752739921212,None,S2,2023-11-09_10h18.26.000,example_staircase,2023.2.3,None,2023-11-09 10h18.50.386092 +0200,
right,0.3,long,0.2,,,,8,0,32,2,132.5957026160031,,,,,,,,,,,,,,,,,,132.59005619300297,132.5957026160031,133.09328432101756,133.5847077650251,133.5847077650251,133.7769049850176,134.24431484102388,right,0.656682978005847,None,S2,2023-11-09_10h18.26.000,example_staircase,2023.2.3,None,2023-11-09 10h18.50.386092 +0200,
left,-0.3,long,0.2,,,,8,1,33,0,134.25564314602525,,,,,,,,,,,,,,,,,,134.24494153499836,134.25564314602525,134.74390744502307,135.25129944601213,135.25129944601213,135.44401893400936,135.7795098030183,left,0.5214238849875983,None,S2,2023-11-09_10h18.26.000,example_staircase,2023.2.3,None,2023-11-09 10h18.50.386092 +0200,
right,0.3,long,0.2,,,,8,2,34,2,135.78905684500933,,,,,,,,,,,,,,,,,,135.78038696901058,135.78905684500933,136.27725509300944,136.7862730170018,136.7862730170018,136.978376744024,137.34056477600825,right,0.5486086620076094,None,S2,2023-11-09_10h18.26.000,example_staircase,2023.2.3,None,2023-11-09 10h18.50.386092 +0200,
right,0.3,long,0.2,,,,8,3,35,2,137.3474747580185,,,,,,,,,,,,,,,,,,137.34121710402542,137.3474747580185,137.84470861102454,138.33675890302402,138.33675890302402,138.52879586600466,138.74090861700824,left,0.3927322399977129,None,S2,2023-11-09_10h18.26.000,example_staircase,2023.2.3,None,2023-11-09 10h18.50.386092 +0200,
left,-0.3,long,0.2,,,,9,0,36,0,138.74788426200394,,,,,,,,,,,,,,,,,,138.74153518202365,138.74788426200394,139.24498723002034,139.73616269402555,139.73616269402555,139.9287024960213,140.20777864701813,left,0.4678867379843723,None,S2,2023-11-09_10h18.26.000,example_staircase,2023.2.3,None,2023-11-09 10h18.50.386092 +0200,
right,0.3,short,0.1,,,,9,1,37,3,140.21479513400118,,,,,,,,,,,,,,,,,,140.2084637140215,140.21479513400118,140.71168163602124,141.2030864090193,141.2030864090193,141.2953750390152,142.41457007802092,right,1.2053193860047031,None,S2,2023-11-09_10h18.26.000,example_staircase,2023.2.3,None,2023-11-09 10h18.50.386092 +0200,
right,0.3,long,0.2,,,,9,2,38,2,142.42480842600344,,,,,,,,,,,,,,,,,,142.4150395920151,142.42480842600344,142.91311264800606,143.42099537100876,143.42099537100876,143.6133660050109,143.72560203101602,left,0.29298264998942614,None,S2,2023-11-09_10h18.26.000,example_staircase,2023.2.3,None,2023-11-09 10h18.50.386092 +0200,
left,-0.3,long,0.2,,,,9,3,39,0,143.7326384340122,,,,,,,,,,,,,,,,,,143.72624552401248,143.7326384340122,144.23006077701575,144.72088516299846,144.72088516299846,144.9133567190147,145.22563809499843,left,0.5008223750046454,None,S2,2023-11-09_10h18.26.000,example_staircase,2023.2.3,None,2023-11-09 10h18.50.386092 +0200,
left,-0.3,long,0.2,,,,10,0,40,0,145.23230355602573,,,,,,,,,,,,,,,,,,145.22618610900827,145.23230355602573,145.7299492720049,146.2209920710011,146.2209920710011,146.4134883430088,146.70999118001782,left,0.4853979210020043,None,S2,2023-11-09_10h18.26.000,example_staircase,2023.2.3,None,2023-11-09 10h18.50.386092 +0200,
right,0.3,short,0.1,,,,10,1,41,3,146.71695061100763,,,,,,,,,,,,,,,,,,146.71064814500278,146.71695061100763,147.21434387602494,147.70525856001768,147.70525856001768,147.79784388901317,148.126890886022,right,0.41843874199548736,None,S2,2023-11-09_10h18.26.000,example_staircase,2023.2.3,None,2023-11-09 10h18.50.386092 +0200,
left,-0.3,short,0.1,,,,10,2,42,1,148.13380275599775,,,,,,,,,,,,,,,,,,148.1275358100247,148.13380275599775,148.63174097699812,149.12217994400999,149.12217994400999,149.21460033601034,149.52709490500274,left,0.3963933619961608,None,S2,2023-11-09_10h18.26.000,example_staircase,2023.2.3,None,2023-11-09 10h18.50.386092 +0200,
left,-0.3,short,0.1,,,,10,3,43,1,149.5341912820004,,,,,,,,,,,,,,,,,,149.52772245000233,149.5341912820004,150.03113041401957,150.52264158401522,150.52264158401522,150.61478247502237,151.02718636899954,left,0.4921489209809806,None,S2,2023-11-09_10h18.26.000,example_staircase,2023.2.3,None,2023-11-09 10h18.50.386092 +0200,
left,-0.3,long,0.2,,,,11,0,44,0,151.03337454400025,,,,,,,,,,,,,,,,,,151.02787154901307,151.03337454400025,151.5274923070101,152.02376264700433,152.02376264700433,152.21588146901922,152.46150301402668,left,0.4315971969917882,None,S2,2023-11-09_10h18.26.000,example_staircase,2023.2.3,None,2023-11-09 10h18.50.386092 +0200,
left,-0.3,short,0.1,,,,11,1,45,1,152.46845601100358,,,,,,,,,,,,,,,,,,152.46215830201982,152.46845601100358,152.9656288610131,153.4568973889982,153.4568973889982,153.5492357550247,153.86193220200948,left,0.4041956409928389,None,S2,2023-11-09_10h18.26.000,example_staircase,2023.2.3,None,2023-11-09 10h18.50.386092 +0200,
right,0.3,short,0.1,,,,11,2,46,3,153.86868074099766,,,,,,,,,,,,,,,,,,153.86253805700107,153.86868074099766,154.36584963501082,154.8616911690042,154.8616911690042,154.9497041790164,155.74533792000148,right,0.8774687749973964,None,S2,2023-11-09_10h18.26.000,example_staircase,2023.2.3,None,2023-11-09 10h18.50.386092 +0200,
right,0.3,long,0.2,,,,11,3,47,2,155.7523307960073,,,,,,,,,,,,,,,,,,155.74597612500656,155.7523307960073,156.2495339900197,156.74138050701004,156.74138050701004,156.9335867970076,157.28467700700276,right,0.5387404030188918,None,S2,2023-11-09_10h18.26.000,example_staircase,2023.2.3,None,2023-11-09 10h18.50.386092 +0200,
left,-0.3,long,0.2,,,,12,0,48,0,157.29561510201893,,,,,,,,,,,,,,,,,,157.28554887601058,157.29561510201893,157.78384307501256,158.2921312150138,158.2921312150138,158.48405203400762,158.77980958402622,left,0.48486699399654754,None,S2,2023-11-09_10h18.26.000,example_staircase,2023.2.3,None,2023-11-09 10h18.50.386092 +0200,
left,-0.3,short,0.1,,,,12,1,49,1,158.78692874201806,,,,,,,,,,,,,,,,,,158.78043570602313,158.78692874201806,159.28389301901916,159.7754439120181,159.7754439120181,159.86727676400915,160.57988798600854,left,0.8018421400047373,None,S2,2023-11-09_10h18.26.000,example_staircase,2023.2.3,None,2023-11-09 10h18.50.386092 +0200,
left,-0.3,short,0.1,,,,12,2,50,1,160.58671701001003,,,,,,,,,,,,,,,,,,160.58054514901596,160.58671701001003,161.08404932401027,161.57605918199988,161.57605918199988,161.66873191701598,162.31433021702105,right,0.7333136269880924,None,S2,2023-11-09_10h18.26.000,example_staircase,2023.2.3,None,2023-11-09 10h18.50.386092 +0200,
left,-0.3,long,0.2,,,,12,3,51,0,162.32130888101528,,,,,,,,,,,,,,,,,,162.315015382017,162.32130888101528,162.81828986600158,163.31405803901725,163.31405803901725,163.50227463201736,163.86437362100696,left,0.5476232809887733,None,S2,2023-11-09_10h18.26.000,example_staircase,2023.2.3,None,2023-11-09 10h18.50.386092 +0200,
left,-0.3,short,0.1,,,,13,0,52,1,163.87134616501862,,,,,,,,,,,,,,,,,,163.86501772800693,163.87134616501862,164.3685745150142,164.85967295701266,164.85967295701266,164.9519945170032,165.34820392599795,left,0.48770958100794815,None,S2,2023-11-09_10h18.26.000,example_staircase,2023.2.3,None,2023-11-09 10h18.50.386092 +0200,
right,0.3,short,0.1,,,,13,1,53,3,165.3551170389983,,,,,,,,,,,,,,,,,,165.34882936099893,165.3551170389983,165.85200541402446,166.34787737601437,166.34787737601437,166.4355634880194,166.86599685900728,right,0.5056051190185826,None,S2,2023-11-09_10h18.26.000,example_staircase,2023.2.3,None,2023-11-09 10h18.50.386092 +0200,
right,0.3,long,0.2,,,,13,2,54,2,166.873274202022,,,,,,,,,,,,,,,,,,166.86676547501702,166.873274202022,167.36966537102126,167.86635531601496,167.86635531601496,168.06518829902052,168.39891436201287,right,0.5290736269962508,None,S2,2023-11-09_10h18.26.000,example_staircase,2023.2.3,None,2023-11-09 10h18.50.386092 +0200,
left,-0.3,long,0.2,,,,13,3,55,0,168.40549044200452,,,,,,,,,,,,,,,,,,168.3994411250169,168.40549044200452,168.9031972020166,169.39447541700792,169.39447541700792,169.58689797701663,170.11609022301855,left,0.7114529760146979,None,S2,2023-11-09_10h18.26.000,example_staircase,2023.2.3,None,2023-11-09 10h18.50.386092 +0200,
left,-0.3,short,0.1,,,,14,0,56,1,170.1231185120123,,,,,,,,,,,,,,,,,,170.11673481200705,170.1231185120123,170.62081725802273,171.1119550090225,171.1119550090225,171.20387640601257,171.92179717301042,right,0.8049274910008535,None,S2,2023-11-09_10h18.26.000,example_staircase,2023.2.3,None,2023-11-09 10h18.50.386092 +0200,
left,-0.3,long,0.2,,,,14,1,57,0,171.9331131290237,,,,,,,,,,,,,,,,,,171.922423978016,171.9331131290237,172.4212893960066,172.91795938101131,172.91795938101131,173.11656917602522,173.60048546802136,left,0.674299231992336,None,S2,2023-11-09_10h18.26.000,example_staircase,2023.2.3,None,2023-11-09 10h18.50.386092 +0200,
left,-0.3,long,0.2,,,,14,2,58,0,173.60744470902137,,,,,,,,,,,,,,,,,,173.601111942,173.60744470902137,174.10472104902146,174.596024168015,174.596024168015,174.78830963899964,175.1009559330123,left,0.5041158350068145,None,S2,2023-11-09_10h18.26.000,example_staircase,2023.2.3,None,2023-11-09 10h18.50.386092 +0200,
right,0.3,short,0.1,,,,14,3,59,3,175.10780528601026,,,,,,,,,,,,,,,,,,175.1015844110225,175.10780528601026,175.60499322600663,176.1004948990012,176.1004948990012,176.1883970690251,176.61837684200145,right,0.5069914439809509,None,S2,2023-11-09_10h18.26.000,example_staircase,2023.2.3,None,2023-11-09 10h18.50.386092 +0200,
right,0.3,long,0.2,,,,15,0,60,2,176.6253914880217,,,,,,,,,,,,,,,,,,176.61902304302203,176.6253914880217,177.12249818700366,177.61383192401263,177.61383192401263,177.80638763701427,178.3519054770004,left,0.7267928630171809,None,S2,2023-11-09_10h18.26.000,example_staircase,2023.2.3,None,2023-11-09 10h18.50.386092 +0200,
left,-0.3,short,0.1,,,,15,1,61,1,178.3588766400062,,,,,,,,,,,,,,,,,,178.35256776600727,178.3588766400062,178.85591065100743,179.34776030102512,179.34776030102512,179.4399158700253,179.80681381301838,left,0.4544326449977234,None,S2,2023-11-09_10h18.26.000,example_staircase,2023.2.3,None,2023-11-09 10h18.50.386092 +0200,
right,0.3,long,0.2,,,,15,2,62,2,179.818101855024,,,,,,,,,,,,,,,,,,179.80744647001848,179.818101855024,180.30604297399987,180.8019150220207,180.8019150220207,180.98973144800402,181.35240824101493,right,0.5416710659919772,None,S2,2023-11-09_10h18.26.000,example_staircase,2023.2.3,None,2023-11-09 10h18.50.386092 +0200,
right,0.3,short,0.1,,,,15,3,63,3,181.35947487602243,,,,,,,,,,,,,,,,,,181.35308984402218,181.35947487602243,181.85698673702427,182.34829356902628,182.34829356902628,182.44081990999985,183.019678089011,left,0.6597541299997829,None,S2,2023-11-09_10h18.26.000,example_staircase,2023.2.3,None,2023-11-09 10h18.50.386092 +0200,
left,-0.3,short,0.1,,,,16,0,64,1,183.0263382740086,,,,,,,,,,,,,,,,,,183.02022131800186,183.0263382740086,183.5193801280111,184.01570109202294,184.01570109202294,184.1075944630138,184.5700294590206,left,0.5453593670099508,None,S2,2023-11-09_10h18.26.000,example_staircase,2023.2.3,None,2023-11-09 10h18.50.386092 +0200,
right,0.3,short,0.1,,,,16,1,65,3,184.5770348480146,,,,,,,,,,,,,,,,,,184.5707046710013,184.5770348480146,185.0741276720073,185.56533771700924,185.56533771700924,185.6576463340025,186.1430252280261,right,0.5713395570055582,None,S2,2023-11-09_10h18.26.000,example_staircase,2023.2.3,None,2023-11-09 10h18.50.386092 +0200,
right,0.3,short,0.1,,,,16,2,66,3,186.15293458200176,,,,,,,,,,,,,,,,,,186.14351946802344,186.15293458200176,186.64193997401162,187.15021824801806,187.15021824801806,187.24203537902213,187.77099139502388,right,0.6166825630061794,None,S2,2023-11-09_10h18.26.000,example_staircase,2023.2.3,None,2023-11-09 10h18.50.386092 +0200,
left,-0.3,short,0.1,,,,16,3,67,1,187.77758772601373,,,,,,,,,,,,,,,,,,187.77151823602617,187.77758772601373,188.27556802201434,188.76716702702106,188.76716702702106,188.85901402001036,189.27142139500938,left,0.49644992500543594,None,S2,2023-11-09_10h18.26.000,example_staircase,2023.2.3,None,2023-11-09 10h18.50.386092 +0200,
right,0.3,long,0.2,,,,17,0,68,2,189.2784127370105,,,,,,,,,,,,,,,,,,189.27204954400077,189.2784127370105,189.77536909101764,190.26741893202416,190.26741893202416,190.45931534201372,190.78834689801442,right,0.5146368129935581,None,S2,2023-11-09_10h18.26.000,example_staircase,2023.2.3,None,2023-11-09 10h18.50.386092 +0200,
left,-0.3,short,0.1,,,,17,1,69,1,190.79524882501573,,,,,,,,,,,,,,,,,,190.78898117001518,190.79524882501573,191.29230631701648,191.78483353700722,191.78483353700722,191.87691588301095,192.42757078600698,left,0.6398226169985719,None,S2,2023-11-09_10h18.26.000,example_staircase,2023.2.3,None,2023-11-09 10h18.50.386092 +0200,
right,0.3,long,0.2,,,,17,2,70,2,192.4386964510195,,,,,,,,,,,,,,,,,,192.42820486001438,192.4386964510195,192.92669336101972,193.43503223301377,193.43503223301377,193.6269798030262,194.00616720999824,right,0.5635793940164149,None,S2,2023-11-09_10h18.26.000,example_staircase,2023.2.3,None,2023-11-09 10h18.50.386092 +0200,
right,0.3,short,0.1,,,,17,3,71,3,194.01309190201573,,,,,,,,,,,,,,,,,,194.00683649000712,194.01309190201573,194.51043060101802,195.00148359700688,195.00148359700688,195.09380085900193,195.7613197080209,right,0.7546550820115954,None,S2,2023-11-09_10h18.26.000,example_staircase,2023.2.3,None,2023-11-09 10h18.50.386092 +0200,
left,-0.3,short,0.1,,,,18,0,72,1,195.7723190820252,,,,,,,,,,,,,,,,,,195.76219295401825,195.7723190820252,196.26049054201576,196.75693605400738,196.75693605400738,196.84517613000935,197.30732485000044,left,0.5491307940101251,None,S2,2023-11-09_10h18.26.000,example_staircase,2023.2.3,None,2023-11-09 10h18.50.386092 +0200,
right,0.3,long,0.2,,,,18,1,73,2,197.31425454700366,,,,,,,,,,,,,,,,,,197.3079677830101,197.31425454700366,197.8115679520124,198.3024851810187,198.3024851810187,198.49509894000948,198.90744253300363,right,0.6018148379807826,None,S2,2023-11-09_10h18.26.000,example_staircase,2023.2.3,None,2023-11-09 10h18.50.386092 +0200,
right,0.3,short,0.1,,,,18,2,74,3,198.91442750600982,,,,,,,,,,,,,,,,,,198.90814671100816,198.91442750600982,199.41159167702426,199.9034504200099,199.9034504200099,199.99552603502525,200.891025126999,left,0.9801567099930253,None,S2,2023-11-09_10h18.26.000,example_staircase,2023.2.3,None,2023-11-09 10h18.50.386092 +0200,
right,0.3,short,0.1,,,,18,3,75,3,200.89800640000612,,,,,,,,,,,,,,,,,,200.8917081700056,200.89800640000612,201.39517662802245,201.887165705004,201.887165705004,201.97961382000358,202.3922530830023,right,0.5042678879981395,None,S2,2023-11-09_10h18.26.000,example_staircase,2023.2.3,None,2023-11-09 10h18.50.386092 +0200,
left,-0.3,short,0.1,,,,19,0,76,1,202.39912034201552,,,,,,,,,,,,,,,,,,202.39289249901776,202.39912034201552,202.89636719302507,203.39198589301668,203.39198589301668,203.47969920100877,204.05898540400085,left,0.66618200801895,None,S2,2023-11-09_10h18.26.000,example_staircase,2023.2.3,None,2023-11-09 10h18.50.386092 +0200,
right,0.3,long,0.2,,,,19,1,77,2,204.0658376410138,,,,,,,,,,,,,,,,,,204.0596288780216,204.0658376410138,204.56305521802278,205.05439035600284,205.05439035600284,205.24651099002222,205.59235265900497,right,0.5315727459965274,None,S2,2023-11-09_10h18.26.000,example_staircase,2023.2.3,None,2023-11-09 10h18.50.386092 +0200,
left,-0.3,long,0.2,,,,19,2,78,0,205.59930509500555,,,,,,,,,,,,,,,,,,205.59301164202043,205.59930509500555,206.09655756602297,206.58917247899808,206.58917247899808,206.78129131600144,207.14330804802012,left,0.5497415269783232,None,S2,2023-11-09_10h18.26.000,example_staircase,2023.2.3,None,2023-11-09 10h18.50.386092 +0200,
left,-0.3,long,0.2,,,,19,3,79,0,207.1502453930152,,,,,,,,,,,,,,,,,,207.14399574001436,207.1502453930152,207.647457234998,208.13871255901176,208.13871255901176,208.33102912901086,208.7152851090068,left,0.5747963929898106,None,S2,2023-11-09_10h18.26.000,example_staircase,2023.2.3,None,2023-11-09 10h18.50.386092 +0200,
